image_cue_1,image_cue_2,image_cue_3,image_target_1,image_target_2,image_target_3,targetStart,startTime,endTime,trials.thisRepN,trials.thisTrialN,trials.thisN,trials.thisIndex,textWelcome.started,textWelcome.stopped,keyWelcome.keys,keyWelcome.rt,keyWelcome.started,keyWelcome.stopped,textStart.started,textStart.stopped,keyStart.keys,keyStart.rt,keyStart.started,keyStart.stopped,imageTrailBefore_1.started,imageTrailBefore_1.stopped,imageTrialBefore_2.started,imageTrialBefore_2.stopped,imageTrialBefore_3.started,imageTrialBefore_3.stopped,imageTrialCue_1.started,imageTrialCue_1.stopped,imageTrialCue_2.started,imageTrialCue_2.stopped,imageTrialCue_3.started,imageTrialCue_3.stopped,TrialSceenTargetStart,TrialSceenTargetEnd,imageTrialTarget_1.started,imageTrialTarget_1.stopped,imageTrialTarget_2.started,imageTrialTarget_2.stopped,imageTrialTarget_3.started,imageTrialTarget_3.stopped,keyResponse.keys,keyResponse.rt,keyResponse.started,keyResponse.stopped,textBlank500.started,textBlank500.stopped,textEndSceen.started,textEndSceen.stopped,participant,session,date,expName,psychopyVersion,frameRate,
,,,,,,,,,,,,,5.525048642999991,None,space,25.135644565000007,5.525048642999991,None,,,,,,,,,,,,,,,,,,,,,,,,,,,,,,,,,,,10,001,2020_Apr_18_1922,experiment,2020.1.3,610.9776803744135,
,,,,,,,,,,,,,,,,,,,30.662077905999922,None,space,0.7336738230000037,30.662077905999922,None,,,,,,,,,,,,,,,,,,,,,,,,,,,,,10,001,2020_Apr_18_1922,experiment,2020.1.3,610.9776803744135,
images/light_grey_box,images/light_grey_box,images/light_grey_box,images/light_grey_box,images/light_grey_box_with_target,images/light_grey_box,0,0.1,0.25,0,0,0,54,,,,,,,,,,,,,31.42115004099992,None,31.42115004099992,None,31.42115004099992,None,32.43860053000003,None,32.43860053000003,None,32.43860053000003,None,0.05,0.2,32.614708232,32.73982245399998,32.614708232,32.73982245399998,32.614708232,32.73982245399998,space,2.548536820000095,32.614708232,None,35.16565228899992,None,,,10,001,2020_Apr_18_1922,experiment,2020.1.3,610.9776803744135,
images/light_grey_box,images/light_grey_box,images/light_grey_box_with_cue,images/light_grey_box,images/light_grey_box_with_target,images/light_grey_box,0,0.0,0.15,0,1,1,11,,,,,,,,,,,,,35.667052791999936,None,35.667052791999936,None,35.667052791999936,None,36.703556542,None,36.703556542,None,36.703556542,None,0.5,0.65,36.85652501499999,37.00508314900003,36.85652501499999,37.00508314900003,36.85652501499999,37.00508314900003,space,0.24903062099997442,36.85652501499999,None,37.10748369199996,None,,,10,001,2020_Apr_18_1922,experiment,2020.1.3,610.9776803744135,
images/light_grey_box_with_cue,images/light_grey_box,images/light_grey_box,images/light_grey_box,images/light_grey_box_with_target,images/light_grey_box,0,0.1,0.25,0,2,2,40,,,,,,,,,,,,,37.607458037000015,None,37.607458037000015,None,37.607458037000015,None,38.644439068,None,38.644439068,None,38.644439068,None,0.0,0.15,38.79932601099995,38.952305492999926,38.79932601099995,38.952305492999926,38.79932601099995,38.952305492999926,space,0.18613552600004368,38.79932601099995,None,38.98788793099993,None,,,10,001,2020_Apr_18_1922,experiment,2020.1.3,610.9776803744135,
images/light_grey_box_with_cue,images/light_grey_box,images/light_grey_box,images/light_grey_box,images/light_grey_box_with_target,images/light_grey_box,0,0.1,0.25,0,3,3,43,,,,,,,,,,,,,39.489590446999955,None,39.489590446999955,None,39.489590446999955,None,40.526269989999946,None,40.526269989999946,None,40.526269989999946,None,0.0,0.15,40.67864384899997,40.827342379000015,40.67864384899997,40.827342379000015,40.67864384899997,40.827342379000015,space,0.20385929600001873,40.67864384899997,None,40.884820228999956,None,,,10,001,2020_Apr_18_1922,experiment,2020.1.3,610.9776803744135,
images/light_grey_box,images/light_grey_box,images/light_grey_box_with_cue,images/light_grey_box,images/light_grey_box_with_target,images/light_grey_box,0,0.1,0.25,0,4,4,51,,,,,,,,,,,,,41.38650281399998,None,41.38650281399998,None,41.38650281399998,None,42.42471070099998,None,42.42471070099998,None,42.42471070099998,None,0.1,0.25,42.58368115399992,42.74184386699994,42.58368115399992,42.74184386699994,42.58368115399992,42.74184386699994,space,0.19020591699995748,42.58368115399992,None,42.77645925899992,None,,,10,001,2020_Apr_18_1922,experiment,2020.1.3,610.9776803744135,
images/light_grey_box_with_cue,images/light_grey_box,images/light_grey_box,images/light_grey_box_with_target,images/light_grey_box,images/light_grey_box,0,0.5,0.65,0,5,5,106,,,,,,,,,,,,,43.27675653199992,None,43.27675653199992,None,43.27675653199992,None,44.31362276599998,None,44.31362276599998,None,44.31362276599998,None,0.3,0.44999999999999996,44.470615802,44.61831788099994,44.470615802,44.61831788099994,44.470615802,44.61831788099994,space,0.1940028760000132,44.470615802,None,44.66705694699999,None,,,10,001,2020_Apr_18_1922,experiment,2020.1.3,610.9776803744135,
images/light_grey_box_with_cue,images/light_grey_box,images/light_grey_box,images/light_grey_box,images/light_grey_box_with_target,images/light_grey_box,0,0.2,0.35,0,6,6,60,,,,,,,,,,,,,45.16790375300002,None,45.16790375300002,None,45.16790375300002,None,46.20681526399994,None,46.20681526399994,None,46.20681526399994,None,0.1,0.25,46.365736365999965,46.503259703000026,46.365736365999965,46.503259703000026,46.365736365999965,46.503259703000026,space,1.9219709120000061,46.365736365999965,None,48.29039960299997,None,,,10,001,2020_Apr_18_1922,experiment,2020.1.3,610.9776803744135,
images/light_grey_box_with_cue,images/light_grey_box,images/light_grey_box,images/light_grey_box,images/light_grey_box_with_target,images/light_grey_box,0,0.2,0.35,0,7,7,64,,,,,,,,,,,,,48.79012762299999,None,48.79012762299999,None,48.79012762299999,None,49.829231610999955,None,49.829231610999955,None,49.829231610999955,None,0.3,0.44999999999999996,49.98092304099998,50.13093449500002,49.98092304099998,50.13093449500002,49.98092304099998,50.13093449500002,space,0.21401948400000492,49.98092304099998,None,50.197397034999995,None,,,10,001,2020_Apr_18_1922,experiment,2020.1.3,610.9776803744135,
images/light_grey_box,images/light_grey_box,images/light_grey_box_with_cue,images/light_grey_box,images/light_grey_box,images/light_grey_box_with_target,0,0.05,0.2,0,8,8,37,,,,,,,,,,,,,50.69720799100003,None,50.69720799100003,None,50.69720799100003,None,51.73468145999993,None,51.73468145999993,None,51.73468145999993,None,0.5,0.65,51.89947894699992,52.03576581899995,51.89947894699992,52.03576581899995,51.89947894699992,52.03576581899995,space,2.498564532000046,51.89947894699992,None,54.40035698299994,None,,,10,001,2020_Apr_18_1922,experiment,2020.1.3,610.9776803744135,
images/light_grey_box_with_cue,images/light_grey_box,images/light_grey_box,images/light_grey_box_with_target,images/light_grey_box,images/light_grey_box,0,0.05,0.2,0,9,9,26,,,,,,,,,,,,,54.900558864999994,None,54.900558864999994,None,54.900558864999994,None,55.93755448699994,None,55.93755448699994,None,55.93755448699994,None,0.1,0.25,56.09424790799994,None,56.09424790799994,None,56.09424790799994,None,space,0.09169638899993515,56.09424790799994,None,56.188302389,None,,,10,001,2020_Apr_18_1922,experiment,2020.1.3,610.9776803744135,
images/light_grey_box_with_cue,images/light_grey_box,images/light_grey_box,images/light_grey_box_with_target,images/light_grey_box,images/light_grey_box,0,0.1,0.25,0,10,10,46,,,,,,,,,,,,,56.687971371,None,56.687971371,None,56.687971371,None,57.726236985000014,None,57.726236985000014,None,57.726236985000014,None,0.1,0.25,57.883350361,58.02420973799997,57.883350361,58.02420973799997,57.883350361,58.02420973799997,space,0.16929524499994386,57.883350361,None,58.055060948000005,None,,,10,001,2020_Apr_18_1922,experiment,2020.1.3,610.9776803744135,
images/light_grey_box_with_cue,images/light_grey_box,images/light_grey_box,images/light_grey_box,images/light_grey_box,images/light_grey_box_with_target,0,0.1,0.25,0,11,11,47,,,,,,,,,,,,,58.555772849999926,None,58.555772849999926,None,58.555772849999926,None,59.595633196999984,None,59.595633196999984,None,59.595633196999984,None,0.2,0.35,59.743069660999936,None,59.743069660999936,None,59.743069660999936,None,space,0.13149702700002308,59.743069660999936,None,59.87723520999998,None,,,10,001,2020_Apr_18_1922,experiment,2020.1.3,610.9776803744135,
images/light_grey_box,images/light_grey_box,images/light_grey_box_with_cue,images/light_grey_box,images/light_grey_box_with_target,images/light_grey_box,0,0.3,0.45,0,12,12,91,,,,,,,,,,,,,60.37778403799996,None,60.37778403799996,None,60.37778403799996,None,61.41699554799993,None,61.41699554799993,None,61.41699554799993,None,0.3,0.44999999999999996,61.576363122999965,61.71076175399992,61.576363122999965,61.71076175399992,61.576363122999965,61.71076175399992,space,0.13462180299995907,61.576363122999965,None,61.713400019000005,None,,,10,001,2020_Apr_18_1922,experiment,2020.1.3,610.9776803744135,
images/light_grey_box_with_cue,images/light_grey_box,images/light_grey_box,images/light_grey_box,images/light_grey_box,images/light_grey_box_with_target,0,0.2,0.35,0,13,13,67,,,,,,,,,,,,,62.215292222000016,None,62.215292222000016,None,62.215292222000016,None,63.25131123599999,None,63.25131123599999,None,63.25131123599999,None,0.2,0.35,63.40364334000003,None,63.40364334000003,None,63.40364334000003,None,space,0.07893171300008817,63.40364334000003,None,63.48501014599992,None,,,10,001,2020_Apr_18_1922,experiment,2020.1.3,610.9776803744135,
images/light_grey_box,images/light_grey_box,images/light_grey_box,images/light_grey_box,images/light_grey_box_with_target,images/light_grey_box,0,0.5,0.65,0,14,14,115,,,,,,,,,,,,,63.98558946100002,None,63.98558946100002,None,63.98558946100002,None,65.02038879700001,None,65.02038879700001,None,65.02038879700001,None,0.05,0.2,65.17382379999992,65.32144939,65.17382379999992,65.32144939,65.17382379999992,65.32144939,space,0.259932645000049,65.17382379999992,None,65.43623637299993,None,,,10,001,2020_Apr_18_1922,experiment,2020.1.3,610.9776803744135,
images/light_grey_box_with_cue,images/light_grey_box,images/light_grey_box,images/light_grey_box,images/light_grey_box_with_target,images/light_grey_box,0,0.1,0.25,0,15,15,44,,,,,,,,,,,,,65.93689317799999,None,65.93689317799999,None,65.93689317799999,None,66.97368592800001,None,66.97368592800001,None,66.97368592800001,None,0.2,0.35,67.12700022199999,67.27163562700002,67.12700022199999,67.27163562700002,67.12700022199999,67.27163562700002,space,0.21270397900002536,67.12700022199999,None,67.34209038300003,None,,,10,001,2020_Apr_18_1922,experiment,2020.1.3,610.9776803744135,
images/light_grey_box,images/light_grey_box,images/light_grey_box,images/light_grey_box,images/light_grey_box_with_target,images/light_grey_box,0,0.3,0.45,0,16,16,93,,,,,,,,,,,,,67.84162250099996,None,67.84162250099996,None,67.84162250099996,None,68.87746215499999,None,68.87746215499999,None,68.87746215499999,None,0.2,0.35,69.03067888099997,69.17765963199997,69.03067888099997,69.17765963199997,69.03067888099997,69.17765963199997,space,1.9032805880000296,69.03067888099997,None,70.93640302099993,None,,,10,001,2020_Apr_18_1922,experiment,2020.1.3,610.9776803744135,
images/light_grey_box,images/light_grey_box,images/light_grey_box,images/light_grey_box,images/light_grey_box_with_target,images/light_grey_box,0,0.3,0.45,0,17,17,96,,,,,,,,,,,,,71.43658391899999,None,71.43658391899999,None,71.43658391899999,None,72.472497933,None,72.472497933,None,72.472497933,None,0.0,0.15,72.64331541599995,72.78662735099999,72.64331541599995,72.78662735099999,72.64331541599995,72.78662735099999,space,2.20636862799995,72.64331541599995,None,74.85207774499997,None,,,10,001,2020_Apr_18_1922,experiment,2020.1.3,610.9776803744135,
images/light_grey_box_with_cue,images/light_grey_box,images/light_grey_box,images/light_grey_box,images/light_grey_box_with_target,images/light_grey_box,0,0.05,0.2,0,18,18,22,,,,,,,,,,,,,75.35294551100003,None,75.35294551100003,None,75.35294551100003,None,76.39015974099993,None,76.39015974099993,None,76.39015974099993,None,0.05,0.2,76.54092376699998,None,76.54092376699998,None,76.54092376699998,None,space,0.08181491600009849,76.54092376699998,None,76.62515205499994,None,,,10,001,2020_Apr_18_1922,experiment,2020.1.3,610.9776803744135,
images/light_grey_box_with_cue,images/light_grey_box,images/light_grey_box,images/light_grey_box,images/light_grey_box_with_target,images/light_grey_box,0,0.2,0.35,0,19,19,63,,,,,,,,,,,,,77.125380414,None,77.125380414,None,77.125380414,None,78.16244266599995,None,78.16244266599995,None,78.16244266599995,None,0.1,0.25,78.321073856,78.47763015700002,78.321073856,78.47763015700002,78.321073856,78.47763015700002,space,0.19296295200001623,78.321073856,None,78.51650062599992,None,,,10,001,2020_Apr_18_1922,experiment,2020.1.3,610.9776803744135,
images/light_grey_box,images/light_grey_box,images/light_grey_box_with_cue,images/light_grey_box,images/light_grey_box,images/light_grey_box,0,0.2,0.35,0,20,20,78,,,,,,,,,,,,,79.01755975899994,None,79.01755975899994,None,79.01755975899994,None,80.05474464500003,None,80.05474464500003,None,80.05474464500003,None,0.05,0.2,80.21236290799993,80.35107079099998,80.21236290799993,80.35107079099998,80.21236290799993,80.35107079099998,space,2.4056662829999595,80.21236290799993,None,82.62044418200003,None,,,10,001,2020_Apr_18_1922,experiment,2020.1.3,610.9776803744135,
images/light_grey_box,images/light_grey_box,images/light_grey_box,images/light_grey_box,images/light_grey_box_with_target,images/light_grey_box,0,0.05,0.2,0,21,21,36,,,,,,,,,,,,,83.12033107000002,None,83.12033107000002,None,83.12033107000002,None,84.15625471700002,None,84.15625471700002,None,84.15625471700002,None,0.0,0.15,84.31372050599998,84.45697009399998,84.31372050599998,84.45697009399998,84.31372050599998,84.45697009399998,space,0.2109485709999035,84.31372050599998,None,84.527016559,None,,,10,001,2020_Apr_18_1922,experiment,2020.1.3,610.9776803744135,
images/light_grey_box_with_cue,images/light_grey_box,images/light_grey_box,images/light_grey_box,images/light_grey_box_with_target,images/light_grey_box,0,0.1,0.25,0,22,22,41,,,,,,,,,,,,,85.02717574799999,None,85.02717574799999,None,85.02717574799999,None,86.06355969999993,None,86.06355969999993,None,86.06355969999993,None,0.3,0.44999999999999996,86.215632776,86.36291432799999,86.215632776,86.36291432799999,86.215632776,86.36291432799999,space,0.1699295629999824,86.215632776,None,86.38793128700001,None,,,10,001,2020_Apr_18_1922,experiment,2020.1.3,610.9776803744135,
images/light_grey_box,images/light_grey_box,images/light_grey_box,images/light_grey_box,images/light_grey_box_with_target,images/light_grey_box,0,0.2,0.35,0,23,23,74,,,,,,,,,,,,,86.88947252899993,None,86.88947252899993,None,86.88947252899993,None,87.92424482399997,None,87.92424482399997,None,87.92424482399997,None,0.1,0.25,88.07921344700003,88.23461729999997,88.07921344700003,88.23461729999997,88.07921344700003,88.23461729999997,space,0.1821225889999596,88.07921344700003,None,88.26360743700002,None,,,10,001,2020_Apr_18_1922,experiment,2020.1.3,610.9776803744135,
images/light_grey_box,images/light_grey_box,images/light_grey_box_with_cue,images/light_grey_box,images/light_grey_box,images/light_grey_box_with_target,0,0.5,0.65,0,24,24,117,,,,,,,,,,,,,88.76335615799997,None,88.76335615799997,None,88.76335615799997,None,89.80101453700001,None,89.80101453700001,None,89.80101453700001,None,0.2,0.35,89.95567381900003,None,89.95567381900003,None,89.95567381900003,None,space,0.09779519100004563,89.95567381900003,None,90.05583218599998,None,,,10,001,2020_Apr_18_1922,experiment,2020.1.3,610.9776803744135,
images/light_grey_box_with_cue,images/light_grey_box,images/light_grey_box,images/light_grey_box,images/light_grey_box_with_target,images/light_grey_box,0,0.0,0.15,0,25,25,0,,,,,,,,,,,,,90.55705558099999,None,90.55705558099999,None,90.55705558099999,None,91.59383603200001,None,91.59383603200001,None,91.59383603200001,None,0.2,0.35,91.77124902399999,91.909190394,91.77124902399999,91.909190394,91.77124902399999,91.909190394,space,0.13971933699997408,91.77124902399999,None,91.91270000199995,None,,,10,001,2020_Apr_18_1922,experiment,2020.1.3,610.9776803744135,
images/light_grey_box,images/light_grey_box,images/light_grey_box_with_cue,images/light_grey_box,images/light_grey_box_with_target,images/light_grey_box,0,0.2,0.35,0,26,26,70,,,,,,,,,,,,,92.41276198499997,None,92.41276198499997,None,92.41276198499997,None,93.45067325299999,None,93.45067325299999,None,93.45067325299999,None,0.05,0.2,93.60917313099992,93.74938588600003,93.60917313099992,93.74938588600003,93.60917313099992,93.74938588600003,space,2.1726213839999673,93.60917313099992,None,95.78420315400001,None,,,10,001,2020_Apr_18_1922,experiment,2020.1.3,610.9776803744135,
images/light_grey_box,images/light_grey_box,images/light_grey_box_with_cue,images/light_grey_box,images/light_grey_box,images/light_grey_box_with_target,0,0.1,0.25,0,27,27,57,,,,,,,,,,,,,96.28354767799999,None,96.28354767799999,None,96.28354767799999,None,97.32125832399993,None,97.32125832399993,None,97.32125832399993,None,0.05,0.2,97.47365207199994,97.62280340699999,97.47365207199994,97.62280340699999,97.47365207199994,97.62280340699999,space,2.3189698380000436,97.47365207199994,None,99.79500095599997,None,,,10,001,2020_Apr_18_1922,experiment,2020.1.3,610.9776803744135,
images/light_grey_box_with_cue,images/light_grey_box,images/light_grey_box,images/light_grey_box,images/light_grey_box_with_target,images/light_grey_box,0,0.0,0.15,0,28,28,2,,,,,,,,,,,,,100.29559210000002,None,100.29559210000002,None,100.29559210000002,None,101.33257576199992,None,101.33257576199992,None,101.33257576199992,None,0.3,0.44999999999999996,101.48474356500003,None,101.48474356500003,None,101.48474356500003,None,space,0.05502720899994529,101.48474356500003,None,101.54215309400001,None,,,10,001,2020_Apr_18_1922,experiment,2020.1.3,610.9776803744135,
images/light_grey_box,images/light_grey_box,images/light_grey_box,images/light_grey_box,images/light_grey_box_with_target,images/light_grey_box,0,0.5,0.65,0,29,29,116,,,,,,,,,,,,,102.04352095299998,None,102.04352095299998,None,102.04352095299998,None,103.07870647899995,None,103.07870647899995,None,103.07870647899995,None,0.1,0.25,103.23288613900002,103.38504944199997,103.23288613900002,103.38504944199997,103.23288613900002,103.38504944199997,space,0.22329043600007026,103.23288613900002,None,103.45853307799996,None,,,10,001,2020_Apr_18_1922,experiment,2020.1.3,610.9776803744135,
images/light_grey_box,images/light_grey_box,images/light_grey_box_with_cue,images/light_grey_box,images/light_grey_box_with_target,images/light_grey_box,0,0.3,0.45,0,30,30,92,,,,,,,,,,,,,103.96015478999993,None,103.96015478999993,None,103.96015478999993,None,104.99726388099998,None,104.99726388099998,None,104.99726388099998,None,0.05,0.2,105.15764771900001,105.29526608499998,105.15764771900001,105.29526608499998,105.15764771900001,105.29526608499998,space,0.18122748399991906,105.15764771900001,None,105.34130115899995,None,,,10,001,2020_Apr_18_1922,experiment,2020.1.3,610.9776803744135,
images/light_grey_box,images/light_grey_box,images/light_grey_box,images/light_grey_box,images/light_grey_box_with_target,images/light_grey_box,0,0.3,0.45,0,31,31,94,,,,,,,,,,,,,105.84186527999998,None,105.84186527999998,None,105.84186527999998,None,106.87788342199997,None,106.87788342199997,None,106.87788342199997,None,0.5,0.65,107.03686565099997,107.18505073300003,107.03686565099997,107.18505073300003,107.03686565099997,107.18505073300003,space,0.19211928400000033,107.03686565099997,None,107.23143768399996,None,,,10,001,2020_Apr_18_1922,experiment,2020.1.3,610.9776803744135,
images/light_grey_box_with_cue,images/light_grey_box,images/light_grey_box,images/light_grey_box,images/light_grey_box,images/light_grey_box,0,0.2,0.35,0,32,32,69,,,,,,,,,,,,,107.73182421699994,None,107.73182421699994,None,107.73182421699994,None,108.76947204700002,None,108.76947204700002,None,108.76947204700002,None,0.1,0.25,108.93880025599992,None,108.93880025599992,None,108.93880025599992,None,space,0.15650868800003082,108.93880025599992,None,109.09810929599996,None,,,10,001,2020_Apr_18_1922,experiment,2020.1.3,610.9776803744135,
images/light_grey_box,images/light_grey_box,images/light_grey_box_with_cue,images/light_grey_box,images/light_grey_box,images/light_grey_box,0,0.3,0.45,0,33,33,99,,,,,,,,,,,,,109.59763131599993,None,109.59763131599993,None,109.59763131599993,None,110.63901258499993,None,110.63901258499993,None,110.63901258499993,None,0.3,0.44999999999999996,110.79066973800002,110.947366709,110.79066973800002,110.947366709,110.79066973800002,110.947366709,space,1.426728581999896,110.79066973800002,None,112.21914401799995,None,,,10,001,2020_Apr_18_1922,experiment,2020.1.3,610.9776803744135,
images/light_grey_box_with_cue,images/light_grey_box,images/light_grey_box,images/light_grey_box,images/light_grey_box_with_target,images/light_grey_box,0,0.3,0.45,0,34,34,80,,,,,,,,,,,,,112.72000261999995,None,112.72000261999995,None,112.72000261999995,None,113.75692649799998,None,113.75692649799998,None,113.75692649799998,None,0.1,0.25,113.91604382000003,114.05921101000001,113.91604382000003,114.05921101000001,113.91604382000003,114.05921101000001,space,1.1955673510000224,113.91604382000003,None,115.114035124,None,,,10,001,2020_Apr_18_1922,experiment,2020.1.3,610.9776803744135,
images/light_grey_box_with_cue,images/light_grey_box,images/light_grey_box,images/light_grey_box,images/light_grey_box_with_target,images/light_grey_box,0,0.5,0.65,0,35,35,104,,,,,,,,,,,,,115.61432953199994,None,115.61432953199994,None,115.61432953199994,None,116.65518803199996,None,116.65518803199996,None,116.65518803199996,None,0.2,0.35,116.80853858399996,None,116.80853858399996,None,116.80853858399996,None,space,0.13948942800004716,116.80853858399996,None,116.95035320399995,None,,,10,001,2020_Apr_18_1922,experiment,2020.1.3,610.9776803744135,
images/light_grey_box_with_cue,images/light_grey_box,images/light_grey_box,images/light_grey_box,images/light_grey_box,images/light_grey_box,0,0.1,0.25,0,36,36,48,,,,,,,,,,,,,117.45089954599996,None,117.45089954599996,None,117.45089954599996,None,118.48903051100001,None,118.48903051100001,None,118.48903051100001,None,0.5,0.65,118.65444224499993,118.78624722799998,118.65444224499993,118.78624722799998,118.65444224499993,118.78624722799998,space,2.5822723549999864,118.65444224499993,None,121.23919966400001,None,,,10,001,2020_Apr_18_1922,experiment,2020.1.3,610.9776803744135,
images/light_grey_box,images/light_grey_box,images/light_grey_box_with_cue,images/light_grey_box_with_target,images/light_grey_box,images/light_grey_box,0,0.0,0.15,0,37,37,16,,,,,,,,,,,,,121.73924174299998,None,121.73924174299998,None,121.73924174299998,None,122.77749226799995,None,122.77749226799995,None,122.77749226799995,None,0.0,0.15,122.92763162400001,123.075875699,122.92763162400001,123.075875699,122.92763162400001,123.075875699,space,0.239169693000008,122.92763162400001,None,123.16920978799999,None,,,10,001,2020_Apr_18_1922,experiment,2020.1.3,610.9776803744135,
images/light_grey_box_with_cue,images/light_grey_box,images/light_grey_box,images/light_grey_box,images/light_grey_box_with_target,images/light_grey_box,0,0.3,0.45,0,38,38,82,,,,,,,,,,,,,123.66983768,None,123.66983768,None,123.66983768,None,124.70860867199997,None,124.70860867199997,None,124.70860867199997,None,0.0,0.15,124.85981133299993,125.00656099599996,124.85981133299993,125.00656099599996,124.85981133299993,125.00656099599996,space,0.15933795299997655,124.85981133299993,None,125.02109871799996,None,,,10,001,2020_Apr_18_1922,experiment,2020.1.3,610.9776803744135,
images/light_grey_box,images/light_grey_box,images/light_grey_box,images/light_grey_box,images/light_grey_box_with_target,images/light_grey_box,0,0.05,0.2,0,39,39,35,,,,,,,,,,,,,125.52042314699997,None,125.52042314699997,None,125.52042314699997,None,126.55629715299995,None,126.55629715299995,None,126.55629715299995,None,0.5,0.65,126.71220283599996,126.86045023199995,126.71220283599996,126.86045023199995,126.71220283599996,126.86045023199995,space,0.18310633300006884,126.71220283599996,None,126.89765734100001,None,,,10,001,2020_Apr_18_1922,experiment,2020.1.3,610.9776803744135,
images/light_grey_box_with_cue,images/light_grey_box,images/light_grey_box,images/light_grey_box,images/light_grey_box_with_target,images/light_grey_box,0,0.05,0.2,0,40,40,20,,,,,,,,,,,,,127.39827275799996,None,127.39827275799996,None,127.39827275799996,None,128.43471757499992,None,128.43471757499992,None,128.43471757499992,None,0.0,0.15,128.61773523699992,128.75361743399992,128.61773523699992,128.75361743399992,128.61773523699992,128.75361743399992,space,0.14415833900000052,128.61773523699992,None,128.76473497400002,None,,,10,001,2020_Apr_18_1922,experiment,2020.1.3,610.9776803744135,
images/light_grey_box,images/light_grey_box,images/light_grey_box_with_cue,images/light_grey_box,images/light_grey_box,images/light_grey_box,0,0.5,0.65,0,41,41,119,,,,,,,,,,,,,129.26581443199996,None,129.26581443199996,None,129.26581443199996,None,130.30145258599998,None,130.30145258599998,None,130.30145258599998,None,0.3,0.44999999999999996,130.465830923,130.59516043199994,130.465830923,130.59516043199994,130.465830923,130.59516043199994,space,1.7555778270000246,130.465830923,None,132.22385625999993,None,,,10,001,2020_Apr_18_1922,experiment,2020.1.3,610.9776803744135,
images/light_grey_box_with_cue,images/light_grey_box,images/light_grey_box,images/light_grey_box,images/light_grey_box,images/light_grey_box_with_target,0,0.3,0.45,0,42,42,87,,,,,,,,,,,,,132.72490119199995,None,132.72490119199995,None,132.72490119199995,None,133.76375281999992,None,133.76375281999992,None,133.76375281999992,None,0.2,0.35,133.93046019899998,134.05981739999993,133.93046019899998,134.05981739999993,133.93046019899998,134.05981739999993,space,0.15291532100002314,133.93046019899998,None,134.085837009,None,,,10,001,2020_Apr_18_1922,experiment,2020.1.3,610.9776803744135,
images/light_grey_box_with_cue,images/light_grey_box,images/light_grey_box,images/light_grey_box,images/light_grey_box,images/light_grey_box,0,0.0,0.15,0,43,43,8,,,,,,,,,,,,,134.58637446800003,None,134.58637446800003,None,134.58637446800003,None,135.625736707,None,135.625736707,None,135.625736707,None,0.3,0.44999999999999996,135.77181036399998,None,135.77181036399998,None,135.77181036399998,None,space,0.14856931799999984,135.77181036399998,None,135.92294404199993,None,,,10,001,2020_Apr_18_1922,experiment,2020.1.3,610.9776803744135,
images/light_grey_box_with_cue,images/light_grey_box,images/light_grey_box,images/light_grey_box,images/light_grey_box,images/light_grey_box,0,0.05,0.2,0,44,44,29,,,,,,,,,,,,,136.42342903099996,None,136.42342903099996,None,136.42342903099996,None,137.461981013,None,137.461981013,None,137.461981013,None,0.0,0.15,137.62213272999998,137.75798717199996,137.62213272999998,137.75798717199996,137.62213272999998,137.75798717199996,space,1.1854884790000142,137.62213272999998,None,138.81020531899992,None,,,10,001,2020_Apr_18_1922,experiment,2020.1.3,610.9776803744135,
images/light_grey_box_with_cue,images/light_grey_box,images/light_grey_box,images/light_grey_box,images/light_grey_box_with_target,images/light_grey_box,0,0.0,0.15,0,45,45,1,,,,,,,,,,,,,139.31082923999998,None,139.31082923999998,None,139.31082923999998,None,140.346955257,None,140.346955257,None,140.346955257,None,0.1,0.25,140.49960676299997,140.65403823299994,140.49960676299997,140.65403823299994,140.49960676299997,140.65403823299994,space,1.4064159450000489,140.49960676299997,None,141.90835453,None,,,10,001,2020_Apr_18_1922,experiment,2020.1.3,610.9776803744135,
images/light_grey_box,images/light_grey_box,images/light_grey_box,images/light_grey_box,images/light_grey_box_with_target,images/light_grey_box,0,0.5,0.65,0,46,46,113,,,,,,,,,,,,,142.40884685999993,None,142.40884685999993,None,142.40884685999993,None,143.44461781099994,None,143.44461781099994,None,143.44461781099994,None,0.0,0.15,143.61377656000002,None,143.61377656000002,None,143.61377656000002,None,space,0.019569719000060104,143.61377656000002,None,143.635649972,None,,,10,001,2020_Apr_18_1922,experiment,2020.1.3,610.9776803744135,
images/light_grey_box,images/light_grey_box,images/light_grey_box_with_cue,images/light_grey_box,images/light_grey_box,images/light_grey_box,0,0.1,0.25,0,47,47,58,,,,,,,,,,,,,144.13485951899997,None,144.13485951899997,None,144.13485951899997,None,145.17205652299992,None,145.17205652299992,None,145.17205652299992,None,0.05,0.2,145.324555905,None,145.324555905,None,145.324555905,None,space,0.14034322299994528,145.324555905,None,145.46764907,None,,,10,001,2020_Apr_18_1922,experiment,2020.1.3,610.9776803744135,
images/light_grey_box,images/light_grey_box,images/light_grey_box_with_cue,images/light_grey_box,images/light_grey_box_with_target,images/light_grey_box,0,0.1,0.25,0,48,48,50,,,,,,,,,,,,,145.96822993399996,None,145.96822993399996,None,145.96822993399996,None,147.00636937799993,None,147.00636937799993,None,147.00636937799993,None,0.05,0.2,147.155579074,147.30782273499995,147.155579074,147.30782273499995,147.155579074,147.30782273499995,space,0.31942187799995736,147.155579074,None,147.47737274899998,None,,,10,001,2020_Apr_18_1922,experiment,2020.1.3,610.9776803744135,
images/light_grey_box_with_cue,images/light_grey_box,images/light_grey_box,images/light_grey_box,images/light_grey_box_with_target,images/light_grey_box,0,0.05,0.2,0,49,49,25,,,,,,,,,,,,,147.97784654299994,None,147.97784654299994,None,147.97784654299994,None,149.01533075299994,None,149.01533075299994,None,149.01533075299994,None,0.05,0.2,149.16950945999997,None,149.16950945999997,None,149.16950945999997,None,space,0.12268131500002255,149.16950945999997,None,149.29469798599996,None,,,10,001,2020_Apr_18_1922,experiment,2020.1.3,610.9776803744135,
images/light_grey_box,images/light_grey_box,images/light_grey_box_with_cue,images/light_grey_box,images/light_grey_box_with_target,images/light_grey_box,0,0.05,0.2,0,50,50,31,,,,,,,,,,,,,149.79526400999998,None,149.79526400999998,None,149.79526400999998,None,150.83157589299992,None,150.83157589299992,None,150.83157589299992,None,0.2,0.35,150.98237223799993,151.129888983,150.98237223799993,151.129888983,150.98237223799993,151.129888983,space,0.19004036800004087,150.98237223799993,None,151.17488394600002,None,,,10,001,2020_Apr_18_1922,experiment,2020.1.3,610.9776803744135,
images/light_grey_box,images/light_grey_box,images/light_grey_box,images/light_grey_box,images/light_grey_box_with_target,images/light_grey_box,0,0.05,0.2,0,51,51,34,,,,,,,,,,,,,151.67435388,None,151.67435388,None,151.67435388,None,152.71106632299995,None,152.71106632299995,None,152.71106632299995,None,0.05,0.2,152.86599355299995,153.021332819,152.86599355299995,153.021332819,152.86599355299995,153.021332819,space,0.28835896199996114,152.86599355299995,None,153.15687323299994,None,,,10,001,2020_Apr_18_1922,experiment,2020.1.3,610.9776803744135,
images/light_grey_box_with_cue,images/light_grey_box,images/light_grey_box,images/light_grey_box,images/light_grey_box_with_target,images/light_grey_box,0,0.1,0.25,0,52,52,42,,,,,,,,,,,,,153.65718086599998,None,153.65718086599998,None,153.65718086599998,None,154.69404693799993,None,154.69404693799993,None,154.69404693799993,None,0.0,0.15,154.84385111999995,155.00058888399997,154.84385111999995,155.00058888399997,154.84385111999995,155.00058888399997,space,0.1858735670000442,154.84385111999995,None,155.03205057799994,None,,,10,001,2020_Apr_18_1922,experiment,2020.1.3,610.9776803744135,
images/light_grey_box_with_cue,images/light_grey_box,images/light_grey_box,images/light_grey_box,images/light_grey_box_with_target,images/light_grey_box,0,0.5,0.65,0,53,53,101,,,,,,,,,,,,,155.532071633,None,155.532071633,None,155.532071633,None,156.56824126200002,None,156.56824126200002,None,156.56824126200002,None,0.2,0.35,156.73628067699997,156.86922335600002,156.73628067699997,156.86922335600002,156.73628067699997,156.86922335600002,space,0.3582560029999513,156.73628067699997,None,157.096982411,None,,,10,001,2020_Apr_18_1922,experiment,2020.1.3,610.9776803744135,
images/light_grey_box,images/light_grey_box,images/light_grey_box_with_cue,images/light_grey_box,images/light_grey_box,images/light_grey_box,0,0.3,0.45,0,54,54,98,,,,,,,,,,,,,157.59747932699997,None,157.59747932699997,None,157.59747932699997,None,158.63452412499998,None,158.63452412499998,None,158.63452412499998,None,0.5,0.65,158.78279667100003,158.93206073599993,158.78279667100003,158.93206073599993,158.78279667100003,158.93206073599993,space,2.189483103999919,158.78279667100003,None,160.97465553299992,None,,,10,001,2020_Apr_18_1922,experiment,2020.1.3,610.9776803744135,
images/light_grey_box_with_cue,images/light_grey_box,images/light_grey_box,images/light_grey_box,images/light_grey_box,images/light_grey_box,0,0.3,0.45,0,55,55,88,,,,,,,,,,,,,161.47492050699998,None,161.47492050699998,None,161.47492050699998,None,162.51466692099996,None,162.51466692099996,None,162.51466692099996,None,0.5,0.65,162.66926727499992,None,162.66926727499992,None,162.66926727499992,None,space,0.13903335299994524,162.66926727499992,None,162.81074703799993,None,,,10,001,2020_Apr_18_1922,experiment,2020.1.3,610.9776803744135,
images/light_grey_box_with_cue,images/light_grey_box,images/light_grey_box,images/light_grey_box,images/light_grey_box,images/light_grey_box,0,0.3,0.45,0,56,56,89,,,,,,,,,,,,,163.312708745,None,163.312708745,None,163.312708745,None,164.347934453,None,164.347934453,None,164.347934453,None,0.3,0.44999999999999996,164.50051020699993,164.658403358,164.50051020699993,164.658403358,164.50051020699993,164.658403358,space,1.5085083489999533,164.50051020699993,None,166.01149094599998,None,,,10,001,2020_Apr_18_1922,experiment,2020.1.3,610.9776803744135,
images/light_grey_box,images/light_grey_box,images/light_grey_box_with_cue,images/light_grey_box,images/light_grey_box,images/light_grey_box_with_target,0,0.2,0.35,0,57,57,77,,,,,,,,,,,,,166.51337314399996,None,166.51337314399996,None,166.51337314399996,None,167.549759968,None,167.549759968,None,167.549759968,None,0.0,0.15,167.70417074,167.853153679,167.70417074,167.853153679,167.70417074,167.853153679,space,0.3056767890000174,167.70417074,None,168.01218810499995,None,,,10,001,2020_Apr_18_1922,experiment,2020.1.3,610.9776803744135,
images/light_grey_box_with_cue,images/light_grey_box,images/light_grey_box,images/light_grey_box,images/light_grey_box_with_target,images/light_grey_box,0,0.5,0.65,0,58,58,105,,,,,,,,,,,,,168.512384323,None,168.512384323,None,168.512384323,None,169.550436622,None,169.550436622,None,169.550436622,None,0.5,0.65,169.70178749499996,169.85337873499998,169.70178749499996,169.85337873499998,169.70178749499996,169.85337873499998,space,0.18903189800005293,169.70178749499996,None,169.89278133799996,None,,,10,001,2020_Apr_18_1922,experiment,2020.1.3,610.9776803744135,
images/light_grey_box,images/light_grey_box,images/light_grey_box,images/light_grey_box,images/light_grey_box_with_target,images/light_grey_box,0,0.1,0.25,0,59,59,53,,,,,,,,,,,,,170.39321988400002,None,170.39321988400002,None,170.39321988400002,None,171.42728666799997,None,171.42728666799997,None,171.42728666799997,None,0.3,0.44999999999999996,171.61109170299994,171.736401161,171.61109170299994,171.736401161,171.61109170299994,171.736401161,space,0.225735794000002,171.61109170299994,None,171.83917817399993,None,,,10,001,2020_Apr_18_1922,experiment,2020.1.3,610.9776803744135,
images/light_grey_box,images/light_grey_box,images/light_grey_box_with_cue,images/light_grey_box,images/light_grey_box_with_target,images/light_grey_box,0,0.3,0.45,0,60,60,90,,,,,,,,,,,,,172.33952329499994,None,172.33952329499994,None,172.33952329499994,None,173.37642664399993,None,173.37642664399993,None,173.37642664399993,None,0.2,0.35,173.530363309,None,173.530363309,None,173.530363309,None,space,0.15459071200007202,173.530363309,None,173.68698684100002,None,,,10,001,2020_Apr_18_1922,experiment,2020.1.3,610.9776803744135,
images/light_grey_box,images/light_grey_box,images/light_grey_box_with_cue,images/light_grey_box,images/light_grey_box,images/light_grey_box,0,0.0,0.15,0,61,61,18,,,,,,,,,,,,,174.18770146399993,None,174.18770146399993,None,174.18770146399993,None,175.225810142,None,175.225810142,None,175.225810142,None,0.3,0.44999999999999996,175.39345899399996,175.53732852399992,175.39345899399996,175.53732852399992,175.39345899399996,175.53732852399992,space,0.15100479199998063,175.39345899399996,None,175.54690352599994,None,,,10,001,2020_Apr_18_1922,experiment,2020.1.3,610.9776803744135,
images/light_grey_box_with_cue,images/light_grey_box,images/light_grey_box,images/light_grey_box,images/light_grey_box_with_target,images/light_grey_box,0,0.05,0.2,0,62,62,24,,,,,,,,,,,,,176.04679094799997,None,176.04679094799997,None,176.04679094799997,None,177.08383919200003,None,177.08383919200003,None,177.08383919200003,None,0.3,0.44999999999999996,177.25206234799998,None,177.25206234799998,None,177.25206234799998,None,space,0.07425966000005246,177.25206234799998,None,177.32878509299996,None,,,10,001,2020_Apr_18_1922,experiment,2020.1.3,610.9776803744135,
images/light_grey_box,images/light_grey_box,images/light_grey_box_with_cue,images/light_grey_box,images/light_grey_box_with_target,images/light_grey_box,0,0.5,0.65,0,63,63,112,,,,,,,,,,,,,177.830658321,None,177.830658321,None,177.830658321,None,178.868915614,None,178.868915614,None,178.868915614,None,0.1,0.25,179.021008628,179.169525033,179.021008628,179.169525033,179.021008628,179.169525033,space,0.43415498500007743,179.021008628,None,179.45756214699998,None,,,10,001,2020_Apr_18_1922,experiment,2020.1.3,610.9776803744135,
images/light_grey_box_with_cue,images/light_grey_box,images/light_grey_box,images/light_grey_box,images/light_grey_box,images/light_grey_box,0,0.5,0.65,0,64,64,109,,,,,,,,,,,,,179.95715377599993,None,179.95715377599993,None,179.95715377599993,None,180.996641964,None,180.996641964,None,180.996641964,None,0.05,0.2,181.14626743899998,181.313205369,181.14626743899998,181.313205369,181.14626743899998,181.313205369,space,1.6646334770000522,181.14626743899998,None,182.813243672,None,,,10,001,2020_Apr_18_1922,experiment,2020.1.3,610.9776803744135,
images/light_grey_box,images/light_grey_box,images/light_grey_box,images/light_grey_box,images/light_grey_box_with_target,images/light_grey_box,0,0.1,0.25,0,65,65,55,,,,,,,,,,,,,183.312321161,None,183.312321161,None,183.312321161,None,184.34984895499997,None,184.34984895499997,None,184.34984895499997,None,0.0,0.15,184.504634399,None,184.504634399,None,184.504634399,None,space,0.06856454599994777,184.504634399,None,184.575522116,None,,,10,001,2020_Apr_18_1922,experiment,2020.1.3,610.9776803744135,
images/light_grey_box_with_cue,images/light_grey_box,images/light_grey_box,images/light_grey_box,images/light_grey_box_with_target,images/light_grey_box,0,0.2,0.35,0,66,66,61,,,,,,,,,,,,,185.07559435299993,None,185.07559435299993,None,185.07559435299993,None,186.115245393,None,186.115245393,None,186.115245393,None,0.1,0.25,186.27572124999995,186.41243208899994,186.27572124999995,186.41243208899994,186.27572124999995,186.41243208899994,space,0.1593372539999791,186.27572124999995,None,186.43751497799997,None,,,10,001,2020_Apr_18_1922,experiment,2020.1.3,610.9776803744135,
images/light_grey_box,images/light_grey_box,images/light_grey_box_with_cue,images/light_grey_box,images/light_grey_box,images/light_grey_box,0,0.0,0.15,0,67,67,19,,,,,,,,,,,,,186.93811273400001,None,186.93811273400001,None,186.93811273400001,None,187.97720796399994,None,187.97720796399994,None,187.97720796399994,None,0.2,0.35,188.12570816200002,188.27119549199995,188.12570816200002,188.27119549199995,188.12570816200002,188.27119549199995,space,0.9793576340000527,188.12570816200002,None,189.10744342499993,None,,,10,001,2020_Apr_18_1922,experiment,2020.1.3,610.9776803744135,
images/light_grey_box,images/light_grey_box,images/light_grey_box,images/light_grey_box,images/light_grey_box_with_target,images/light_grey_box,0,0.3,0.45,0,68,68,95,,,,,,,,,,,,,189.60697778299993,None,189.60697778299993,None,189.60697778299993,None,190.64436957099997,None,190.64436957099997,None,190.64436957099997,None,0.1,0.25,190.79834706399993,None,190.79834706399993,None,190.79834706399993,None,space,0.008971915999950397,190.79834706399993,None,190.80903583499992,None,,,10,001,2020_Apr_18_1922,experiment,2020.1.3,610.9776803744135,
images/light_grey_box_with_cue,images/light_grey_box,images/light_grey_box,images/light_grey_box_with_target,images/light_grey_box,images/light_grey_box,0,0.3,0.45,0,69,69,86,,,,,,,,,,,,,191.309210291,None,191.309210291,None,191.309210291,None,192.34754056999998,None,192.34754056999998,None,192.34754056999998,None,0.05,0.2,192.551666651,192.669332296,192.551666651,192.669332296,192.551666651,192.669332296,space,0.3046629960000473,192.551666651,None,192.85803266799996,None,,,10,001,2020_Apr_18_1922,experiment,2020.1.3,610.9776803744135,
images/light_grey_box,images/light_grey_box,images/light_grey_box,images/light_grey_box,images/light_grey_box_with_target,images/light_grey_box,0,0.05,0.2,0,70,70,33,,,,,,,,,,,,,193.35940022699992,None,193.35940022699992,None,193.35940022699992,None,194.39568536199988,None,194.39568536199988,None,194.39568536199988,None,0.1,0.25,194.55269853099992,194.70247243400001,194.55269853099992,194.70247243400001,194.55269853099992,194.70247243400001,space,0.19510288200012837,194.55269853099992,None,194.74977206100004,None,,,10,001,2020_Apr_18_1922,experiment,2020.1.3,610.9776803744135,
images/light_grey_box_with_cue,images/light_grey_box,images/light_grey_box,images/light_grey_box,images/light_grey_box_with_target,images/light_grey_box,0,0.5,0.65,0,71,71,102,,,,,,,,,,,,,195.25108015500007,None,195.25108015500007,None,195.25108015500007,None,196.28982906599992,None,196.28982906599992,None,196.28982906599992,None,0.1,0.25,196.4492363779999,None,196.4492363779999,None,196.4492363779999,None,space,0.0563715719999891,196.4492363779999,None,196.50723739900002,None,,,10,001,2020_Apr_18_1922,experiment,2020.1.3,610.9776803744135,
images/light_grey_box,images/light_grey_box,images/light_grey_box_with_cue,images/light_grey_box,images/light_grey_box,images/light_grey_box_with_target,0,0.0,0.15,0,72,72,17,,,,,,,,,,,,,197.00734214800002,None,197.00734214800002,None,197.00734214800002,None,198.0472840189999,None,198.0472840189999,None,198.0472840189999,None,0.5,0.65,198.20820113599996,198.3647865239999,198.20820113599996,198.3647865239999,198.20820113599996,198.3647865239999,space,0.3225312389999999,198.20820113599996,None,198.53300234699998,None,,,10,001,2020_Apr_18_1922,experiment,2020.1.3,610.9776803744135,
images/light_grey_box_with_cue,images/light_grey_box,images/light_grey_box,images/light_grey_box,images/light_grey_box_with_target,images/light_grey_box,0,0.3,0.45,0,73,73,83,,,,,,,,,,,,,199.03315533500006,None,199.03315533500006,None,199.03315533500006,None,200.07264868699997,None,200.07264868699997,None,200.07264868699997,None,0.1,0.25,200.22665327099992,200.37212541799988,200.22665327099992,200.37212541799988,200.22665327099992,200.37212541799988,space,0.15530493799997203,200.22665327099992,None,200.3844124819999,None,,,10,001,2020_Apr_18_1922,experiment,2020.1.3,610.9776803744135,
images/light_grey_box_with_cue,images/light_grey_box,images/light_grey_box,images/light_grey_box_with_target,images/light_grey_box,images/light_grey_box,0,0.2,0.35,0,74,74,66,,,,,,,,,,,,,200.88604120699995,None,200.88604120699995,None,200.88604120699995,None,201.92327738200004,None,201.92327738200004,None,201.92327738200004,None,0.2,0.35,202.07614979499988,202.23877905400002,202.07614979499988,202.23877905400002,202.07614979499988,202.23877905400002,space,1.7298100860000432,202.07614979499988,None,203.808410881,None,,,10,001,2020_Apr_18_1922,experiment,2020.1.3,610.9776803744135,
images/light_grey_box_with_cue,images/light_grey_box,images/light_grey_box,images/light_grey_box,images/light_grey_box,images/light_grey_box,0,0.05,0.2,0,75,75,28,,,,,,,,,,,,,204.30968181800006,None,204.30968181800006,None,204.30968181800006,None,205.3476087129999,None,205.3476087129999,None,205.3476087129999,None,0.1,0.25,205.49789556300004,205.6436278079999,205.49789556300004,205.6436278079999,205.49789556300004,205.6436278079999,space,0.18569264799998564,205.49789556300004,None,205.68595096399997,None,,,10,001,2020_Apr_18_1922,experiment,2020.1.3,610.9776803744135,
images/light_grey_box,images/light_grey_box,images/light_grey_box,images/light_grey_box,images/light_grey_box_with_target,images/light_grey_box,0,0.2,0.35,0,76,76,76,,,,,,,,,,,,,206.18757938200008,None,206.18757938200008,None,206.18757938200008,None,207.22306866099996,None,207.22306866099996,None,207.22306866099996,None,0.3,0.44999999999999996,207.3823855679999,207.52786566099996,207.3823855679999,207.52786566099996,207.3823855679999,207.52786566099996,space,0.22771378099992035,207.3823855679999,None,207.61193548900007,None,,,10,001,2020_Apr_18_1922,experiment,2020.1.3,610.9776803744135,
images/light_grey_box_with_cue,images/light_grey_box,images/light_grey_box,images/light_grey_box,images/light_grey_box_with_target,images/light_grey_box,0,0.2,0.35,0,77,77,62,,,,,,,,,,,,,208.11234616800004,None,208.11234616800004,None,208.11234616800004,None,209.1520192249999,None,209.1520192249999,None,209.1520192249999,None,0.0,0.15,209.32505261699987,209.45182609200003,209.32505261699987,209.45182609200003,209.32505261699987,209.45182609200003,space,0.2842507090001618,209.32505261699987,None,209.61175919599998,None,,,10,001,2020_Apr_18_1922,experiment,2020.1.3,610.9776803744135,
images/light_grey_box,images/light_grey_box,images/light_grey_box_with_cue,images/light_grey_box,images/light_grey_box_with_target,images/light_grey_box,0,0.05,0.2,0,78,78,32,,,,,,,,,,,,,210.11253776,None,210.11253776,None,210.11253776,None,211.15148159700004,None,211.15148159700004,None,211.15148159700004,None,0.3,0.44999999999999996,211.30400948999988,211.45923154900004,211.30400948999988,211.45923154900004,211.30400948999988,211.45923154900004,space,0.19185042399999475,211.30400948999988,None,211.49829327400005,None,,,10,001,2020_Apr_18_1922,experiment,2020.1.3,610.9776803744135,
images/light_grey_box_with_cue,images/light_grey_box,images/light_grey_box,images/light_grey_box,images/light_grey_box_with_target,images/light_grey_box,0,0.05,0.2,0,79,79,21,,,,,,,,,,,,,211.99918960899993,None,211.99918960899993,None,211.99918960899993,None,213.03837116700004,None,213.03837116700004,None,213.03837116700004,None,0.2,0.35,213.18904546099986,213.33437584699993,213.18904546099986,213.33437584699993,213.18904546099986,213.33437584699993,space,0.21305149699992398,213.18904546099986,None,213.40454301700004,None,,,10,001,2020_Apr_18_1922,experiment,2020.1.3,610.9776803744135,
images/light_grey_box_with_cue,images/light_grey_box,images/light_grey_box,images/light_grey_box,images/light_grey_box_with_target,images/light_grey_box,0,0.3,0.45,0,80,80,85,,,,,,,,,,,,,213.90475189699998,None,213.90475189699998,None,213.90475189699998,None,214.94301879500006,None,214.94301879500006,None,214.94301879500006,None,0.1,0.25,215.1036998589999,215.24951892799993,215.1036998589999,215.24951892799993,215.1036998589999,215.24951892799993,space,0.2553850629999488,215.1036998589999,None,215.36103907199993,None,,,10,001,2020_Apr_18_1922,experiment,2020.1.3,610.9776803744135,
images/light_grey_box_with_cue,images/light_grey_box,images/light_grey_box,images/light_grey_box,images/light_grey_box_with_target,images/light_grey_box,0,0.0,0.15,0,81,81,3,,,,,,,,,,,,,215.86128976899988,None,215.86128976899988,None,215.86128976899988,None,216.9005603689999,None,216.9005603689999,None,216.9005603689999,None,0.3,0.44999999999999996,217.05206907600007,217.20232381599988,217.05206907600007,217.20232381599988,217.05206907600007,217.20232381599988,space,0.17156662899992625,217.05206907600007,None,217.22593894199997,None,,,10,001,2020_Apr_18_1922,experiment,2020.1.3,610.9776803744135,
images/light_grey_box_with_cue,images/light_grey_box,images/light_grey_box,images/light_grey_box,images/light_grey_box_with_target,images/light_grey_box,0,0.0,0.15,0,82,82,5,,,,,,,,,,,,,217.725310422,None,217.725310422,None,217.725310422,None,218.76527092100002,None,218.76527092100002,None,218.76527092100002,None,0.05,0.2,218.93060955599992,219.07267682600002,218.93060955599992,219.07267682600002,218.93060955599992,219.07267682600002,space,0.1794794689999435,218.93060955599992,None,219.11256141299998,None,,,10,001,2020_Apr_18_1922,experiment,2020.1.3,610.9776803744135,
images/light_grey_box_with_cue,images/light_grey_box,images/light_grey_box,images/light_grey_box,images/light_grey_box,images/light_grey_box_with_target,0,0.05,0.2,0,83,83,27,,,,,,,,,,,,,219.6137491359999,None,219.6137491359999,None,219.6137491359999,None,220.65284424100003,None,220.65284424100003,None,220.65284424100003,None,0.0,0.15,220.80724319500007,220.959664674,220.80724319500007,220.959664674,220.80724319500007,220.959664674,space,0.1938789270000143,220.80724319500007,None,221.00344765099987,None,,,10,001,2020_Apr_18_1922,experiment,2020.1.3,610.9776803744135,
images/light_grey_box,images/light_grey_box,images/light_grey_box_with_cue,images/light_grey_box,images/light_grey_box,images/light_grey_box,0,0.1,0.25,0,84,84,59,,,,,,,,,,,,,221.5042185819999,None,221.5042185819999,None,221.5042185819999,None,222.54333717999987,None,222.54333717999987,None,222.54333717999987,None,0.2,0.35,222.69244444899994,222.85849796900004,222.69244444899994,222.85849796900004,222.69244444899994,222.85849796900004,space,1.0040988600001128,222.69244444899994,None,223.69853838400002,None,,,10,001,2020_Apr_18_1922,experiment,2020.1.3,610.9776803744135,
images/light_grey_box,images/light_grey_box,images/light_grey_box_with_cue,images/light_grey_box,images/light_grey_box,images/light_grey_box_with_target,0,0.3,0.45,0,85,85,97,,,,,,,,,,,,,224.19827805800003,None,224.19827805800003,None,224.19827805800003,None,225.23656744900006,None,225.23656744900006,None,225.23656744900006,None,0.2,0.35,225.40210871200009,None,225.40210871200009,None,225.40210871200009,None,space,0.026857387999825733,225.40210871200009,None,225.43147544700003,None,,,10,001,2020_Apr_18_1922,experiment,2020.1.3,610.9776803744135,
images/light_grey_box_with_cue,images/light_grey_box,images/light_grey_box,images/light_grey_box,images/light_grey_box_with_target,images/light_grey_box,0,0.1,0.25,0,86,86,45,,,,,,,,,,,,,225.9320649959999,None,225.9320649959999,None,225.9320649959999,None,226.97002090900003,None,226.97002090900003,None,226.97002090900003,None,0.2,0.35,227.1225882299999,227.2818558749999,227.1225882299999,227.2818558749999,227.1225882299999,227.2818558749999,space,0.1780608880001182,227.1225882299999,None,227.30297863199996,None,,,10,001,2020_Apr_18_1922,experiment,2020.1.3,610.9776803744135,
images/light_grey_box,images/light_grey_box,images/light_grey_box_with_cue,images/light_grey_box,images/light_grey_box,images/light_grey_box,0,0.05,0.2,0,87,87,39,,,,,,,,,,,,,227.80350728099995,None,227.80350728099995,None,227.80350728099995,None,228.84233325000002,None,228.84233325000002,None,228.84233325000002,None,0.05,0.2,229.01200294099988,229.14126999200005,229.01200294099988,229.14126999200005,229.01200294099988,229.14126999200005,space,0.7906863810001141,229.01200294099988,None,229.80534808000004,None,,,10,001,2020_Apr_18_1922,experiment,2020.1.3,610.9776803744135,
images/light_grey_box_with_cue,images/light_grey_box,images/light_grey_box,images/light_grey_box,images/light_grey_box,images/light_grey_box,0,0.0,0.15,0,88,88,9,,,,,,,,,,,,,230.305690797,None,230.305690797,None,230.305690797,None,231.34432887700007,None,231.34432887700007,None,231.34432887700007,None,0.3,0.44999999999999996,231.50030195600004,231.64357956700007,231.50030195600004,231.64357956700007,231.50030195600004,231.64357956700007,space,0.22749904800002696,231.50030195600004,None,231.730259886,None,,,10,001,2020_Apr_18_1922,experiment,2020.1.3,610.9776803744135,
images/light_grey_box_with_cue,images/light_grey_box,images/light_grey_box,images/light_grey_box,images/light_grey_box,images/light_grey_box,0,0.2,0.35,0,89,89,68,,,,,,,,,,,,,232.2308672999999,None,232.2308672999999,None,232.2308672999999,None,233.27012698099986,None,233.27012698099986,None,233.27012698099986,None,0.0,0.15,233.43003713099995,233.571202729,233.43003713099995,233.571202729,233.43003713099995,233.571202729,space,0.17456670799992935,233.43003713099995,None,233.60699809799996,None,,,10,001,2020_Apr_18_1922,experiment,2020.1.3,610.9776803744135,
images/light_grey_box_with_cue,images/light_grey_box,images/light_grey_box,images/light_grey_box,images/light_grey_box,images/light_grey_box_with_target,0,0.5,0.65,0,90,90,107,,,,,,,,,,,,,234.10849321600006,None,234.10849321600006,None,234.10849321600006,None,235.14691839599993,None,235.14691839599993,None,235.14691839599993,None,0.1,0.25,235.299008113,235.45649432800008,235.299008113,235.45649432800008,235.299008113,235.45649432800008,space,0.1663870089998909,235.299008113,None,235.46770694600002,None,,,10,001,2020_Apr_18_1922,experiment,2020.1.3,610.9776803744135,
images/light_grey_box_with_cue,images/light_grey_box,images/light_grey_box,images/light_grey_box,images/light_grey_box_with_target,images/light_grey_box,0,0.5,0.65,0,91,91,100,,,,,,,,,,,,,235.968078279,None,235.968078279,None,235.968078279,None,237.008934393,None,237.008934393,None,237.008934393,None,0.1,0.25,237.17101885199997,237.31555552299994,237.17101885199997,237.31555552299994,237.17101885199997,237.31555552299994,space,0.3151138120001633,237.17101885199997,None,237.48776916500003,None,,,10,001,2020_Apr_18_1922,experiment,2020.1.3,610.9776803744135,
images/light_grey_box,images/light_grey_box,images/light_grey_box_with_cue,images/light_grey_box,images/light_grey_box,images/light_grey_box,0,0.5,0.65,0,92,92,118,,,,,,,,,,,,,237.9870421039999,None,237.9870421039999,None,237.9870421039999,None,239.02664314800006,None,239.02664314800006,None,239.02664314800006,None,0.1,0.25,239.17594736800004,239.341437725,239.17594736800004,239.341437725,239.17594736800004,239.341437725,space,2.450177091999876,239.17594736800004,None,241.62856294899996,None,,,10,001,2020_Apr_18_1922,experiment,2020.1.3,610.9776803744135,
images/light_grey_box_with_cue,images/light_grey_box,images/light_grey_box,images/light_grey_box,images/light_grey_box,images/light_grey_box_with_target,0,0.0,0.15,0,93,93,7,,,,,,,,,,,,,242.130917824,None,242.130917824,None,242.130917824,None,243.16808669599993,None,243.16808669599993,None,243.16808669599993,None,0.5,0.65,243.31820041499998,243.46907428199995,243.31820041499998,243.46907428199995,243.31820041499998,243.46907428199995,space,0.15533728200011865,243.31820041499998,None,243.47557122699993,None,,,10,001,2020_Apr_18_1922,experiment,2020.1.3,610.9776803744135,
images/light_grey_box_with_cue,images/light_grey_box,images/light_grey_box,images/light_grey_box,images/light_grey_box_with_target,images/light_grey_box,0,0.05,0.2,0,94,94,23,,,,,,,,,,,,,243.97702712400007,None,243.97702712400007,None,243.97702712400007,None,245.01505550900004,None,245.01505550900004,None,245.01505550900004,None,0.3,0.44999999999999996,245.1656425949999,245.316979695,245.1656425949999,245.316979695,245.1656425949999,245.316979695,space,0.3580833959999836,245.1656425949999,None,245.52607243399996,None,,,10,001,2020_Apr_18_1922,experiment,2020.1.3,610.9776803744135,
images/light_grey_box,images/light_grey_box,images/light_grey_box_with_cue,images/light_grey_box,images/light_grey_box_with_target,images/light_grey_box,0,0.5,0.65,0,95,95,110,,,,,,,,,,,,,246.026780927,None,246.026780927,None,246.026780927,None,247.06644304999998,None,247.06644304999998,None,247.06644304999998,None,0.1,0.25,247.2161204759999,247.37892947800003,247.2161204759999,247.37892947800003,247.2161204759999,247.37892947800003,space,1.180066560000114,247.2161204759999,None,248.398550451,None,,,10,001,2020_Apr_18_1922,experiment,2020.1.3,610.9776803744135,
images/light_grey_box,images/light_grey_box,images/light_grey_box_with_cue,images/light_grey_box,images/light_grey_box,images/light_grey_box,0,0.05,0.2,0,96,96,38,,,,,,,,,,,,,248.89908218599987,None,248.89908218599987,None,248.89908218599987,None,249.93733692600006,None,249.93733692600006,None,249.93733692600006,None,0.05,0.2,250.08731666699998,None,250.08731666699998,None,250.08731666699998,None,space,0.05244853900012458,250.08731666699998,None,250.14207955900008,None,,,10,001,2020_Apr_18_1922,experiment,2020.1.3,610.9776803744135,
images/light_grey_box,images/light_grey_box,images/light_grey_box,images/light_grey_box,images/light_grey_box_with_target,images/light_grey_box,0,0.5,0.65,0,97,97,114,,,,,,,,,,,,,250.64229756099996,None,250.64229756099996,None,250.64229756099996,None,251.67891778399996,None,251.67891778399996,None,251.67891778399996,None,0.1,0.25,251.83594301699998,251.980435951,251.83594301699998,251.980435951,251.83594301699998,251.980435951,space,0.2478621430000203,251.83594301699998,None,252.085873849,None,,,10,001,2020_Apr_18_1922,experiment,2020.1.3,610.9776803744135,
images/light_grey_box_with_cue,images/light_grey_box,images/light_grey_box,images/light_grey_box,images/light_grey_box_with_target,images/light_grey_box,0,0.3,0.45,0,98,98,81,,,,,,,,,,,,,252.58692591600004,None,252.58692591600004,None,252.58692591600004,None,253.62477251300004,None,253.62477251300004,None,253.62477251300004,None,0.1,0.25,253.78532770799995,253.92561424400003,253.78532770799995,253.92561424400003,253.78532770799995,253.92561424400003,space,0.22987203999991834,253.78532770799995,None,254.01748064900005,None,,,10,001,2020_Apr_18_1922,experiment,2020.1.3,610.9776803744135,
images/light_grey_box,images/light_grey_box,images/light_grey_box_with_cue,images/light_grey_box,images/light_grey_box_with_target,images/light_grey_box,0,0.2,0.35,0,99,99,71,,,,,,,,,,,,,254.51840898600005,None,254.51840898600005,None,254.51840898600005,None,255.55973956700007,None,255.55973956700007,None,255.55973956700007,None,0.2,0.35,255.72815903999992,255.86307498100007,255.72815903999992,255.86307498100007,255.72815903999992,255.86307498100007,space,0.19374909599991952,255.72815903999992,None,255.92419434800001,None,,,10,001,2020_Apr_18_1922,experiment,2020.1.3,610.9776803744135,
images/light_grey_box,images/light_grey_box,images/light_grey_box,images/light_grey_box,images/light_grey_box_with_target,images/light_grey_box,0,0.1,0.25,0,100,100,56,,,,,,,,,,,,,256.42597167299994,None,256.42597167299994,None,256.42597167299994,None,257.4617022169999,None,257.4617022169999,None,257.4617022169999,None,0.3,0.44999999999999996,257.61407594700006,None,257.61407594700006,None,257.61407594700006,None,space,0.01584475200002089,257.61407594700006,None,257.632411662,None,,,10,001,2020_Apr_18_1922,experiment,2020.1.3,610.9776803744135,
images/light_grey_box,images/light_grey_box,images/light_grey_box_with_cue,images/light_grey_box,images/light_grey_box_with_target,images/light_grey_box,0,0.0,0.15,0,101,101,12,,,,,,,,,,,,,258.1326000160001,None,258.1326000160001,None,258.1326000160001,None,259.1723729859999,None,259.1723729859999,None,259.1723729859999,None,0.05,0.2,259.32902334900007,259.46845723600006,259.32902334900007,259.46845723600006,259.32902334900007,259.46845723600006,space,0.3006593239999802,259.32902334900007,None,259.631936825,None,,,10,001,2020_Apr_18_1922,experiment,2020.1.3,610.9776803744135,
images/light_grey_box_with_cue,images/light_grey_box,images/light_grey_box,images/light_grey_box,images/light_grey_box,images/light_grey_box,0,0.1,0.25,0,102,102,49,,,,,,,,,,,,,260.1327284749999,None,260.1327284749999,None,260.1327284749999,None,261.17358178100005,None,261.17358178100005,None,261.17358178100005,None,0.3,0.44999999999999996,261.3205170319999,261.473530826,261.3205170319999,261.473530826,261.3205170319999,261.473530826,space,2.1359846919999654,261.3205170319999,None,263.4587736279999,None,,,10,001,2020_Apr_18_1922,experiment,2020.1.3,610.9776803744135,
images/light_grey_box,images/light_grey_box,images/light_grey_box_with_cue,images/light_grey_box,images/light_grey_box_with_target,images/light_grey_box,0,0.2,0.35,0,103,103,72,,,,,,,,,,,,,263.9587575219999,None,263.9587575219999,None,263.9587575219999,None,264.999076446,None,264.999076446,None,264.999076446,None,0.5,0.65,265.152216609,265.2974867280001,265.152216609,265.2974867280001,265.152216609,265.2974867280001,space,0.18124323100005313,265.152216609,None,265.33576181399997,None,,,10,001,2020_Apr_18_1922,experiment,2020.1.3,610.9776803744135,
images/light_grey_box,images/light_grey_box,images/light_grey_box_with_cue,images/light_grey_box,images/light_grey_box_with_target,images/light_grey_box,0,0.5,0.65,0,104,104,111,,,,,,,,,,,,,265.835646851,None,265.835646851,None,265.835646851,None,266.875951654,None,266.875951654,None,266.875951654,None,0.5,0.65,267.02786651200006,267.1747180819999,267.02786651200006,267.1747180819999,267.02786651200006,267.1747180819999,space,0.1615822000001117,267.02786651200006,None,267.191760433,None,,,10,001,2020_Apr_18_1922,experiment,2020.1.3,610.9776803744135,
images/light_grey_box,images/light_grey_box,images/light_grey_box_with_cue,images/light_grey_box,images/light_grey_box_with_target,images/light_grey_box,0,0.05,0.2,0,105,105,30,,,,,,,,,,,,,267.6924393989999,None,267.6924393989999,None,267.6924393989999,None,268.73357691500007,None,268.73357691500007,None,268.73357691500007,None,0.05,0.2,268.91318903299987,269.045822185,268.91318903299987,269.045822185,268.91318903299987,269.045822185,space,1.8660780170000635,268.91318903299987,None,270.78131190099987,None,,,10,001,2020_Apr_18_1922,experiment,2020.1.3,610.9776803744135,
images/light_grey_box_with_cue,images/light_grey_box,images/light_grey_box,images/light_grey_box,images/light_grey_box_with_target,images/light_grey_box,0,0.3,0.45,0,106,106,84,,,,,,,,,,,,,271.28239616200005,None,271.28239616200005,None,271.28239616200005,None,272.32248552199997,None,272.32248552199997,None,272.32248552199997,None,0.3,0.44999999999999996,272.48206691400003,None,272.48206691400003,None,272.48206691400003,None,space,0.06290350300014325,272.48206691400003,None,272.54738069200005,None,,,10,001,2020_Apr_18_1922,experiment,2020.1.3,610.9776803744135,
images/light_grey_box_with_cue,images/light_grey_box,images/light_grey_box,images/light_grey_box_with_target,images/light_grey_box,images/light_grey_box,0,0.0,0.15,0,107,107,6,,,,,,,,,,,,,273.04867019200003,None,273.04867019200003,None,273.04867019200003,None,274.08665488400004,None,274.08665488400004,None,274.08665488400004,None,0.05,0.2,274.25486646599995,274.41084145499997,274.25486646599995,274.41084145499997,274.25486646599995,274.41084145499997,space,1.1300169090000054,274.25486646599995,None,275.3876088809999,None,,,10,001,2020_Apr_18_1922,experiment,2020.1.3,610.9776803744135,
images/light_grey_box_with_cue,images/light_grey_box,images/light_grey_box,images/light_grey_box,images/light_grey_box_with_target,images/light_grey_box,0,0.5,0.65,0,108,108,103,,,,,,,,,,,,,275.88847421599996,None,275.88847421599996,None,275.88847421599996,None,276.9293447419999,None,276.9293447419999,None,276.9293447419999,None,0.0,0.15,277.07901180099987,None,277.07901180099987,None,277.07901180099987,None,space,0.11809946499988655,277.07901180099987,None,277.19953993,None,,,10,001,2020_Apr_18_1922,experiment,2020.1.3,610.9776803744135,
images/light_grey_box,images/light_grey_box,images/light_grey_box_with_cue,images/light_grey_box,images/light_grey_box_with_target,images/light_grey_box,0,0.0,0.15,0,109,109,13,,,,,,,,,,,,,277.6999819619999,None,277.6999819619999,None,277.6999819619999,None,278.742856364,None,278.742856364,None,278.742856364,None,0.0,0.15,278.916303739,279.05123448000006,278.916303739,279.05123448000006,278.916303739,279.05123448000006,space,0.17710949399997844,278.916303739,None,279.09585243899994,None,,,10,001,2020_Apr_18_1922,experiment,2020.1.3,610.9776803744135,
images/light_grey_box,images/light_grey_box,images/light_grey_box,images/light_grey_box,images/light_grey_box_with_target,images/light_grey_box,0,0.2,0.35,0,110,110,73,,,,,,,,,,,,,279.5978812049999,None,279.5978812049999,None,279.5978812049999,None,280.634924844,None,280.634924844,None,280.634924844,None,0.0,0.15,280.792419943,280.939063293,280.792419943,280.939063293,280.792419943,280.939063293,space,0.1626590359999227,280.792419943,None,280.95722471600004,None,,,10,001,2020_Apr_18_1922,experiment,2020.1.3,610.9776803744135,
images/light_grey_box,images/light_grey_box,images/light_grey_box,images/light_grey_box,images/light_grey_box_with_target,images/light_grey_box,0,0.2,0.35,0,111,111,75,,,,,,,,,,,,,281.45841420399995,None,281.45841420399995,None,281.45841420399995,None,282.4971185769999,None,282.4971185769999,None,282.4971185769999,None,0.2,0.35,282.66341114499994,282.797629216,282.66341114499994,282.797629216,282.66341114499994,282.797629216,space,0.2916554690000339,282.66341114499994,None,282.95734737600003,None,,,10,001,2020_Apr_18_1922,experiment,2020.1.3,610.9776803744135,
images/light_grey_box,images/light_grey_box,images/light_grey_box_with_cue,images/light_grey_box,images/light_grey_box,images/light_grey_box,0,0.2,0.35,0,112,112,79,,,,,,,,,,,,,283.4583323149999,None,283.4583323149999,None,283.4583323149999,None,284.49790407700004,None,284.49790407700004,None,284.49790407700004,None,0.05,0.2,284.6551723009999,284.80665056400005,284.6551723009999,284.80665056400005,284.6551723009999,284.80665056400005,space,2.2155739470001663,284.6551723009999,None,286.873188572,None,,,10,001,2020_Apr_18_1922,experiment,2020.1.3,610.9776803744135,
images/light_grey_box_with_cue,images/light_grey_box,images/light_grey_box,images/light_grey_box,images/light_grey_box_with_target,images/light_grey_box,0,0.0,0.15,0,113,113,4,,,,,,,,,,,,,287.3745238759999,None,287.3745238759999,None,287.3745238759999,None,288.413756389,None,288.413756389,None,288.413756389,None,0.3,0.44999999999999996,288.56344314399996,288.72432434799987,288.56344314399996,288.72432434799987,288.56344314399996,288.72432434799987,space,2.46680507699989,288.56344314399996,None,291.03265893700006,None,,,10,001,2020_Apr_18_1922,experiment,2020.1.3,610.9776803744135,
images/light_grey_box,images/light_grey_box,images/light_grey_box_with_cue,images/light_grey_box,images/light_grey_box_with_target,images/light_grey_box,0,0.0,0.15,0,114,114,14,,,,,,,,,,,,,291.534663796,None,291.534663796,None,291.534663796,None,292.57244922000007,None,292.57244922000007,None,292.57244922000007,None,0.1,0.25,292.72525183000005,292.8810803109999,292.72525183000005,292.8810803109999,292.72525183000005,292.8810803109999,space,0.1622949999998582,292.72525183000005,None,292.88991573400006,None,,,10,001,2020_Apr_18_1922,experiment,2020.1.3,610.9776803744135,
images/light_grey_box,images/light_grey_box,images/light_grey_box_with_cue,images/light_grey_box,images/light_grey_box_with_target,images/light_grey_box,0,0.0,0.15,0,115,115,15,,,,,,,,,,,,,293.39014590499994,None,293.39014590499994,None,293.39014590499994,None,294.42867671700003,None,294.42867671700003,None,294.42867671700003,None,0.2,0.35,294.583962303,294.72880102600004,294.583962303,294.72880102600004,294.583962303,294.72880102600004,space,0.26304786699984106,294.583962303,None,294.84945678199995,None,,,10,001,2020_Apr_18_1922,experiment,2020.1.3,610.9776803744135,
images/light_grey_box_with_cue,images/light_grey_box,images/light_grey_box,images/light_grey_box,images/light_grey_box_with_target,images/light_grey_box,0,0.2,0.35,0,116,116,65,,,,,,,,,,,,,295.35026311600006,None,295.35026311600006,None,295.35026311600006,None,296.3894261070001,None,296.3894261070001,None,296.3894261070001,None,0.1,0.25,296.54066115800003,296.68838754699993,296.54066115800003,296.68838754699993,296.54066115800003,296.68838754699993,space,0.29260863200011045,296.54066115800003,None,296.835652613,None,,,10,001,2020_Apr_18_1922,experiment,2020.1.3,610.9776803744135,
images/light_grey_box_with_cue,images/light_grey_box,images/light_grey_box,images/light_grey_box,images/light_grey_box,images/light_grey_box,0,0.5,0.65,0,117,117,108,,,,,,,,,,,,,297.3348790250001,None,297.3348790250001,None,297.3348790250001,None,298.37424764399987,None,298.37424764399987,None,298.37424764399987,None,0.5,0.65,298.5235599409999,298.671364121,298.5235599409999,298.671364121,298.5235599409999,298.671364121,space,1.7448373590000301,298.5235599409999,None,300.27043429699995,None,,,10,001,2020_Apr_18_1922,experiment,2020.1.3,610.9776803744135,
images/light_grey_box,images/light_grey_box,images/light_grey_box_with_cue,images/light_grey_box,images/light_grey_box_with_target,images/light_grey_box,0,0.0,0.15,0,118,118,10,,,,,,,,,,,,,300.77021484399995,None,300.77021484399995,None,300.77021484399995,None,301.8093393149999,None,301.8093393149999,None,301.8093393149999,None,0.5,0.65,301.969930545,302.121679063,301.969930545,302.121679063,301.969930545,302.121679063,space,2.149933601999919,301.969930545,None,304.1222729059999,None,,,10,001,2020_Apr_18_1922,experiment,2020.1.3,610.9776803744135,
images/light_grey_box,images/light_grey_box,images/light_grey_box_with_cue,images/light_grey_box,images/light_grey_box_with_target,images/light_grey_box,0,0.1,0.25,0,119,119,52,,,,,,,,,,,,,304.62271375800003,None,304.62271375800003,None,304.62271375800003,None,305.6614460100001,None,305.6614460100001,None,305.6614460100001,None,0.0,0.15,305.8134799819999,None,305.8134799819999,None,305.8134799819999,None,space,0.0733966729999338,305.8134799819999,None,305.88920783800006,None,,,10,001,2020_Apr_18_1922,experiment,2020.1.3,610.9776803744135,
,,,,,,,,,,,,,,,,,,,,,,,,,,,,,,,,,,,,,,,,,,,,,,,,,,,306.388981229,None,,,,,,,
