image_cue_1,image_cue_2,image_cue_3,image_target_1,image_target_2,image_target_3,targetStart,startTime,endTime,trials.thisRepN,trials.thisTrialN,trials.thisN,trials.thisIndex,textWelcome.started,textWelcome.stopped,keyWelcome.keys,keyWelcome.rt,keyWelcome.started,keyWelcome.stopped,textStart.started,textStart.stopped,keyStart.keys,keyStart.rt,keyStart.started,keyStart.stopped,imageTrailBefore_1.started,imageTrailBefore_1.stopped,imageTrialBefore_2.started,imageTrialBefore_2.stopped,imageTrialBefore_3.started,imageTrialBefore_3.stopped,imageTrialCue_1.started,imageTrialCue_1.stopped,imageTrialCue_2.started,imageTrialCue_2.stopped,imageTrialCue_3.started,imageTrialCue_3.stopped,TrialSceenTargetStart,TrialSceenTargetEnd,imageTrialTarget_1.started,imageTrialTarget_1.stopped,imageTrialTarget_2.started,imageTrialTarget_2.stopped,imageTrialTarget_3.started,imageTrialTarget_3.stopped,keyResponse.keys,keyResponse.rt,keyResponse.started,keyResponse.stopped,textBlank500.started,textBlank500.stopped,participant,session,date,expName,psychopyVersion,frameRate,
,,,,,,,,,,,,,55.11845090001589,None,space,7.777548500045668,55.11845090001589,None,,,,,,,,,,,,,,,,,,,,,,,,,,,,,,,,,1,001,2020_Apr_15_1901,experiment,2020.1.3,60.2992288834478,
,,,,,,,,,,,,,,,,,,,62.972448499989696,None,space,2.6996730000246316,62.972448499989696,None,,,,,,,,,,,,,,,,,,,,,,,,,,,1,001,2020_Apr_15_1901,experiment,2020.1.3,60.2992288834478,
images/light_grey_box,images/light_grey_box,images/light_grey_box_with_cue,images/light_grey_box,images/light_grey_box_with_target,images/light_grey_box,0,0.3,0.45,0,0,0,90,,,,,,,,,,,,,66.58099720004248,None,66.58099720004248,None,66.58099720004248,None,66.84607999998843,None,66.84607999998843,None,66.84607999998843,None,0.5,0.65,66.9196188999922,67.06814759998815,66.9196188999922,67.06814759998815,66.9196188999922,67.06814759998815,space,0.3811037000268698,66.9196188999922,None,67.31985969998641,None,1,001,2020_Apr_15_1901,experiment,2020.1.3,60.2992288834478,
images/light_grey_box_with_cue,images/light_grey_box,images/light_grey_box,images/light_grey_box,images/light_grey_box_with_target,images/light_grey_box,0,0.5,0.65,0,1,1,100,,,,,,,,,,,,,67.83382050000364,None,67.83382050000364,None,67.83382050000364,None,68.84487710002577,None,68.84487710002577,None,68.84487710002577,None,0.3,0.44999999999999996,69.06700400001137,69.1835151000414,69.06700400001137,69.1835151000414,69.06700400001137,69.1835151000414,space,0.13012819999130443,69.06700400001137,None,69.21837720001349,None,1,001,2020_Apr_15_1901,experiment,2020.1.3,60.2992288834478,
images/light_grey_box,images/light_grey_box,images/light_grey_box_with_cue,images/light_grey_box,images/light_grey_box,images/light_grey_box_with_target,0,0.2,0.35,0,2,2,77,,,,,,,,,,,,,69.73362549999729,None,69.73362549999729,None,69.73362549999729,None,70.74221340002259,None,70.74221340002259,None,70.74221340002259,None,0.2,0.35,70.98313950002193,71.03328640002292,70.98313950002193,71.03328640002292,70.98313950002193,71.03328640002292,space,0.23598619998665527,70.98313950002193,None,71.25075310003012,None,1,001,2020_Apr_15_1901,experiment,2020.1.3,60.2992288834478,
images/light_grey_box_with_cue,images/light_grey_box,images/light_grey_box,images/light_grey_box,images/light_grey_box_with_target,images/light_grey_box,0,0.0,0.15,0,3,3,2,,,,,,,,,,,,,71.75004670000635,None,71.75004670000635,None,71.75004670000635,None,72.76141030003782,None,72.76141030003782,None,72.76141030003782,None,0.05,0.2,72.96602809999604,73.0826685000211,72.96602809999604,73.0826685000211,72.96602809999604,73.0826685000211,space,0.20880380005110055,72.96602809999604,None,73.20041280001169,None,1,001,2020_Apr_15_1901,experiment,2020.1.3,60.2992288834478,
images/light_grey_box,images/light_grey_box,images/light_grey_box_with_cue,images/light_grey_box,images/light_grey_box,images/light_grey_box,0,0.3,0.45,0,4,4,98,,,,,,,,,,,,,73.69963390001794,None,73.69963390001794,None,73.69963390001794,None,74.7099717000383,None,74.7099717000383,None,74.7099717000383,None,0.3,0.44999999999999996,74.91565770003945,75.03220850002253,74.91565770003945,75.03220850002253,74.91565770003945,75.03220850002253,space,0.22864479996496812,74.91565770003945,None,75.16705819999333,None,1,001,2020_Apr_15_1901,experiment,2020.1.3,60.2992288834478,
images/light_grey_box,images/light_grey_box,images/light_grey_box_with_cue,images/light_grey_box,images/light_grey_box_with_target,images/light_grey_box,0,0.5,0.65,0,5,5,110,,,,,,,,,,,,,75.68219600000884,None,75.68219600000884,None,75.68219600000884,None,76.69075890001841,None,76.69075890001841,None,76.69075890001841,None,0.05,0.2,76.86290200002259,76.98234650003724,76.86290200002259,76.98234650003724,76.86290200002259,76.98234650003724,space,0.27087439998285845,76.86290200002259,None,77.151484800037,None,1,001,2020_Apr_15_1901,experiment,2020.1.3,60.2992288834478,
images/light_grey_box_with_cue,images/light_grey_box,images/light_grey_box,images/light_grey_box,images/light_grey_box,images/light_grey_box,0,0.3,0.45,0,6,6,88,,,,,,,,,,,,,77.66553030000068,None,77.66553030000068,None,77.66553030000068,None,78.68463820003672,None,78.68463820003672,None,78.68463820003672,None,0.5,0.65,78.84597389999544,78.99815440003294,78.84597389999544,78.99815440003294,78.84597389999544,78.99815440003294,space,0.38765230000717565,78.84597389999544,None,79.2660826999927,None,1,001,2020_Apr_15_1901,experiment,2020.1.3,60.2992288834478,
images/light_grey_box,images/light_grey_box,images/light_grey_box,images/light_grey_box,images/light_grey_box_with_target,images/light_grey_box,0,0.05,0.2,0,7,7,34,,,,,,,,,,,,,79.78146660001948,None,79.78146660001948,None,79.78146660001948,None,80.78867859998718,None,80.78867859998718,None,80.78867859998718,None,0.3,0.44999999999999996,80.99811769998632,81.09778290003305,80.99811769998632,81.09778290003305,80.99811769998632,81.09778290003305,space,0.2663292000070214,80.99811769998632,None,81.28272479999578,None,1,001,2020_Apr_15_1901,experiment,2020.1.3,60.2992288834478,
images/light_grey_box,images/light_grey_box,images/light_grey_box_with_cue,images/light_grey_box,images/light_grey_box,images/light_grey_box,0,0.2,0.35,0,8,8,78,,,,,,,,,,,,,81.7860667000059,None,81.7860667000059,None,81.7860667000059,None,82.80747599998722,None,82.80747599998722,None,82.80747599998722,None,0.05,0.2,83.03072119998978,83.13066590001108,83.03072119998978,83.13066590001108,83.03072119998978,83.13066590001108,space,0.21411739999894053,83.03072119998978,None,83.26533190003829,None,1,001,2020_Apr_15_1901,experiment,2020.1.3,60.2992288834478,
images/light_grey_box,images/light_grey_box,images/light_grey_box_with_cue,images/light_grey_box,images/light_grey_box_with_target,images/light_grey_box,0,0.1,0.25,0,9,9,50,,,,,,,,,,,,,83.76453039998887,None,83.76453039998887,None,83.76453039998887,None,84.77633220003918,None,84.77633220003918,None,84.77633220003918,None,0.1,0.25,84.96139469998889,85.13039950001985,84.96139469998889,85.13039950001985,84.96139469998889,85.13039950001985,space,0.27508189994841814,84.96139469998889,None,85.26475349999964,None,1,001,2020_Apr_15_1901,experiment,2020.1.3,60.2992288834478,
images/light_grey_box,images/light_grey_box,images/light_grey_box,images/light_grey_box,images/light_grey_box_with_target,images/light_grey_box,0,0.3,0.45,0,10,10,93,,,,,,,,,,,,,85.7635450999951,None,85.7635450999951,None,85.7635450999951,None,86.77226480003446,None,86.77226480003446,None,86.77226480003446,None,0.05,0.2,86.96793990000151,87.11503350001294,86.96793990000151,87.11503350001294,86.96793990000151,87.11503350001294,space,0.25566429999889806,86.96793990000151,None,87.25009280000813,None,1,001,2020_Apr_15_1901,experiment,2020.1.3,60.2992288834478,
images/light_grey_box_with_cue,images/light_grey_box,images/light_grey_box,images/light_grey_box_with_target,images/light_grey_box,images/light_grey_box,0,0.3,0.45,0,11,11,86,,,,,,,,,,,,,87.76422690000618,None,87.76422690000618,None,87.76422690000618,None,88.7755984000396,None,88.7755984000396,None,88.7755984000396,None,0.05,0.2,88.96289760002401,89.0628039999865,88.96289760002401,89.0628039999865,88.96289760002401,89.0628039999865,space,0.26351889997022226,88.96289760002401,None,89.24766620004084,None,1,001,2020_Apr_15_1901,experiment,2020.1.3,60.2992288834478,
images/light_grey_box,images/light_grey_box,images/light_grey_box,images/light_grey_box,images/light_grey_box_with_target,images/light_grey_box,0,0.2,0.35,0,12,12,73,,,,,,,,,,,,,89.7629270000034,None,89.7629270000034,None,89.7629270000034,None,90.77001460001338,None,90.77001460001338,None,90.77001460001338,None,0.0,0.15,90.96259509999072,91.06240470003104,90.96259509999072,91.06240470003104,90.96259509999072,91.06240470003104,space,0.1838827999890782,90.96259509999072,None,91.16413789999206,None,1,001,2020_Apr_15_1901,experiment,2020.1.3,60.2992288834478,
images/light_grey_box,images/light_grey_box,images/light_grey_box_with_cue,images/light_grey_box,images/light_grey_box_with_target,images/light_grey_box,0,0.5,0.65,0,13,13,112,,,,,,,,,,,,,91.67920700000832,None,91.67920700000832,None,91.67920700000832,None,92.6884917000425,None,92.6884917000425,None,92.6884917000425,None,0.3,0.44999999999999996,92.94549830001779,92.97859579999931,92.94549830001779,92.97859579999931,92.94549830001779,92.97859579999931,space,0.11440590000711381,92.94549830001779,None,93.08006609999575,None,1,001,2020_Apr_15_1901,experiment,2020.1.3,60.2992288834478,
images/light_grey_box_with_cue,images/light_grey_box,images/light_grey_box,images/light_grey_box,images/light_grey_box_with_target,images/light_grey_box,0,0.05,0.2,0,14,14,24,,,,,,,,,,,,,93.59535200003302,None,93.59535200003302,None,93.59535200003302,None,94.60652239999035,None,94.60652239999035,None,94.60652239999035,None,0.0,0.15,94.87856290000491,94.89502100000391,94.87856290000491,94.89502100000391,94.87856290000491,94.89502100000391,space,0.04209719999926165,94.87856290000491,None,94.9476470000227,None,1,001,2020_Apr_15_1901,experiment,2020.1.3,60.2992288834478,
images/light_grey_box,images/light_grey_box,images/light_grey_box,images/light_grey_box,images/light_grey_box_with_target,images/light_grey_box,0,0.1,0.25,0,15,15,56,,,,,,,,,,,,,95.46175310004037,None,95.46175310004037,None,95.46175310004037,None,96.46984949999023,None,96.46984949999023,None,96.46984949999023,None,0.05,0.2,96.67796280002221,96.76133230002597,96.67796280002221,96.76133230002597,96.67796280002221,96.76133230002597,space,0.18065029999706894,96.67796280002221,None,96.87918280001031,None,1,001,2020_Apr_15_1901,experiment,2020.1.3,60.2992288834478,
images/light_grey_box,images/light_grey_box,images/light_grey_box,images/light_grey_box,images/light_grey_box_with_target,images/light_grey_box,0,0.05,0.2,0,16,16,35,,,,,,,,,,,,,97.39461750001647,None,97.39461750001647,None,97.39461750001647,None,98.40227200003574,None,98.40227200003574,None,98.40227200003574,None,0.0,0.15,98.6610688000219,98.77741060004337,98.6610688000219,98.77741060004337,98.6610688000219,98.77741060004337,space,0.15653129998827353,98.6610688000219,None,98.84536530001787,None,1,001,2020_Apr_15_1901,experiment,2020.1.3,60.2992288834478,
images/light_grey_box_with_cue,images/light_grey_box,images/light_grey_box,images/light_grey_box,images/light_grey_box_with_target,images/light_grey_box,0,0.0,0.15,0,17,17,1,,,,,,,,,,,,,99.34412840002915,None,99.34412840002915,None,99.34412840002915,None,100.35920810000971,None,100.35920810000971,None,100.35920810000971,None,0.0,0.15,100.61049120000098,None,100.61049120000098,None,100.61049120000098,None,space,0.11291200004052371,100.61049120000098,None,100.74519280000823,None,1,001,2020_Apr_15_1901,experiment,2020.1.3,60.2992288834478,
images/light_grey_box_with_cue,images/light_grey_box,images/light_grey_box,images/light_grey_box,images/light_grey_box_with_target,images/light_grey_box,0,0.5,0.65,0,18,18,105,,,,,,,,,,,,,101.26053580001462,None,101.26053580001462,None,101.26053580001462,None,102.27255310001783,None,102.27255310001783,None,102.27255310001783,None,0.2,0.35,102.49348619999364,102.61191899998812,102.49348619999364,102.61191899998812,102.49348619999364,102.61191899998812,space,0.17400840000482276,102.49348619999364,None,102.6948066999903,None,1,001,2020_Apr_15_1901,experiment,2020.1.3,60.2992288834478,
images/light_grey_box,images/light_grey_box,images/light_grey_box_with_cue,images/light_grey_box,images/light_grey_box_with_target,images/light_grey_box,0,0.05,0.2,0,19,19,32,,,,,,,,,,,,,103.21007730002748,None,103.21007730002748,None,103.21007730002748,None,104.21869450004306,None,104.21869450004306,None,104.21869450004306,None,0.2,0.35,104.41004129999783,104.50972269999329,104.41004129999783,104.50972269999329,104.41004129999783,104.50972269999329,space,0.16675569996004924,104.41004129999783,None,104.59518679999746,None,1,001,2020_Apr_15_1901,experiment,2020.1.3,60.2992288834478,
images/light_grey_box_with_cue,images/light_grey_box,images/light_grey_box,images/light_grey_box_with_target,images/light_grey_box,images/light_grey_box,0,0.5,0.65,0,20,20,106,,,,,,,,,,,,,105.10964600002626,None,105.10964600002626,None,105.10964600002626,None,106.12122780003119,None,106.12122780003119,None,106.12122780003119,None,0.3,0.44999999999999996,106.29053990001557,106.45956230000593,106.29053990001557,106.45956230000593,106.29053990001557,106.45956230000593,space,0.2037786000291817,106.29053990001557,None,106.51595309999539,None,1,001,2020_Apr_15_1901,experiment,2020.1.3,60.2992288834478,
images/light_grey_box_with_cue,images/light_grey_box,images/light_grey_box,images/light_grey_box,images/light_grey_box_with_target,images/light_grey_box,0,0.2,0.35,0,21,21,63,,,,,,,,,,,,,107.02585540001746,None,107.02585540001746,None,107.02585540001746,None,108.03762330004247,None,108.03762330004247,None,108.03762330004247,None,0.1,0.25,108.22572670003865,None,108.22572670003865,None,108.22572670003865,None,space,0.13832869997713715,108.22572670003865,None,108.3940472000395,None,1,001,2020_Apr_15_1901,experiment,2020.1.3,60.2992288834478,
images/light_grey_box,images/light_grey_box,images/light_grey_box_with_cue,images/light_grey_box,images/light_grey_box,images/light_grey_box,0,0.5,0.65,0,22,22,118,,,,,,,,,,,,,108.9090119000175,None,108.9090119000175,None,108.9090119000175,None,109.91319490002934,None,109.91319490002934,None,109.91319490002934,None,0.3,0.44999999999999996,110.12522990000434,110.20855819998542,110.12522990000434,110.20855819998542,110.12522990000434,110.20855819998542,space,0.14501979999477044,110.12522990000434,None,110.29286440002033,None,1,001,2020_Apr_15_1901,experiment,2020.1.3,60.2992288834478,
images/light_grey_box,images/light_grey_box,images/light_grey_box,images/light_grey_box,images/light_grey_box_with_target,images/light_grey_box,0,0.2,0.35,0,23,23,76,,,,,,,,,,,,,110.79204140004003,None,110.79204140004003,None,110.79204140004003,None,111.80101970001124,None,111.80101970001124,None,111.80101970001124,None,0.3,0.44999999999999996,112.05820190004306,112.12474160001148,112.05820190004306,112.12474160001148,112.05820190004306,112.12474160001148,space,0.1162144000409171,112.05820190004306,None,112.19272920000367,None,1,001,2020_Apr_15_1901,experiment,2020.1.3,60.2992288834478,
images/light_grey_box,images/light_grey_box,images/light_grey_box_with_cue,images/light_grey_box,images/light_grey_box_with_target,images/light_grey_box,0,0.2,0.35,0,24,24,71,,,,,,,,,,,,,112.69432890001917,None,112.69432890001917,None,112.69432890001917,None,113.71833070000866,None,113.71833070000866,None,113.71833070000866,None,0.2,0.35,113.94132220000029,114.02475169999525,113.94132220000029,114.02475169999525,113.94132220000029,114.02475169999525,space,0.13170310005079955,113.94132220000029,None,114.0931707000127,None,1,001,2020_Apr_15_1901,experiment,2020.1.3,60.2992288834478,
images/light_grey_box,images/light_grey_box,images/light_grey_box_with_cue,images/light_grey_box,images/light_grey_box,images/light_grey_box,0,0.2,0.35,0,25,25,79,,,,,,,,,,,,,114.60792370000854,None,114.60792370000854,None,114.60792370000854,None,115.61763809999684,None,115.61763809999684,None,115.61763809999684,None,0.3,0.44999999999999996,115.76506750000408,None,115.76506750000408,None,115.76506750000408,None,space,0.09280159999616444,115.76506750000408,None,115.87595150002744,None,1,001,2020_Apr_15_1901,experiment,2020.1.3,60.2992288834478,
images/light_grey_box_with_cue,images/light_grey_box,images/light_grey_box,images/light_grey_box,images/light_grey_box,images/light_grey_box,0,0.05,0.2,0,26,26,29,,,,,,,,,,,,,116.3907497000182,None,116.3907497000182,None,116.3907497000182,None,117.42160400003195,None,117.42160400003195,None,117.42160400003195,None,0.1,0.25,117.61114860000089,117.69428300001891,117.61114860000089,117.69428300001891,117.61114860000089,117.69428300001891,space,0.15179249999346212,117.61114860000089,None,117.79643909999868,None,1,001,2020_Apr_15_1901,experiment,2020.1.3,60.2992288834478,
images/light_grey_box_with_cue,images/light_grey_box,images/light_grey_box,images/light_grey_box,images/light_grey_box,images/light_grey_box_with_target,0,0.05,0.2,0,27,27,27,,,,,,,,,,,,,118.30950710002799,None,118.30950710002799,None,118.30950710002799,None,119.32062010001391,None,119.32062010001391,None,119.32062010001391,None,0.5,0.65,119.48799210001016,None,119.48799210001016,None,119.48799210001016,None,space,0.14156029996229336,119.48799210001016,None,119.65771719999611,None,1,001,2020_Apr_15_1901,experiment,2020.1.3,60.2992288834478,
images/light_grey_box_with_cue,images/light_grey_box,images/light_grey_box,images/light_grey_box,images/light_grey_box_with_target,images/light_grey_box,0,0.1,0.25,0,28,28,45,,,,,,,,,,,,,120.1570425000391,None,120.1570425000391,None,120.1570425000391,None,121.16967130004195,None,121.16967130004195,None,121.16967130004195,None,0.2,0.35,121.37339690001681,121.5230700999964,121.37339690001681,121.5230700999964,121.37339690001681,121.5230700999964,space,0.1497463000123389,121.37339690001681,None,121.54097309999634,None,1,001,2020_Apr_15_1901,experiment,2020.1.3,60.2992288834478,
images/light_grey_box,images/light_grey_box,images/light_grey_box_with_cue,images/light_grey_box,images/light_grey_box_with_target,images/light_grey_box,0,0.3,0.45,0,29,29,92,,,,,,,,,,,,,122.04150330001721,None,122.04150330001721,None,122.04150330001721,None,123.07265650003683,None,123.07265650003683,None,123.07265650003683,None,0.5,0.65,123.28836470004171,123.43371579999803,123.28836470004171,123.43371579999803,123.28836470004171,123.43371579999803,space,0.14133419998688623,123.28836470004171,None,123.45386569999391,None,1,001,2020_Apr_15_1901,experiment,2020.1.3,60.2992288834478,
images/light_grey_box,images/light_grey_box,images/light_grey_box_with_cue,images/light_grey_box,images/light_grey_box_with_target,images/light_grey_box,0,0.2,0.35,0,30,30,70,,,,,,,,,,,,,123.95603860000847,None,123.95603860000847,None,123.95603860000847,None,124.97062129998812,None,124.97062129998812,None,124.97062129998812,None,0.2,0.35,125.20587080001133,125.27244680002332,125.20587080001133,125.27244680002332,125.20587080001133,125.27244680002332,space,0.09667130000889301,125.20587080001133,None,125.32431140000699,None,1,001,2020_Apr_15_1901,experiment,2020.1.3,60.2992288834478,
images/light_grey_box_with_cue,images/light_grey_box,images/light_grey_box,images/light_grey_box,images/light_grey_box_with_target,images/light_grey_box,0,0.05,0.2,0,31,31,20,,,,,,,,,,,,,125.83901070000138,None,125.83901070000138,None,125.83901070000138,None,126.85114600002998,None,126.85114600002998,None,126.85114600002998,None,0.2,0.35,127.105902899988,127.1887965000351,127.105902899988,127.1887965000351,127.105902899988,127.1887965000351,space,1.8028287999914028,127.105902899988,None,128.94150930002797,None,1,001,2020_Apr_15_1901,experiment,2020.1.3,60.2992288834478,
images/light_grey_box,images/light_grey_box,images/light_grey_box_with_cue,images/light_grey_box,images/light_grey_box_with_target,images/light_grey_box,0,0.0,0.15,0,32,32,10,,,,,,,,,,,,,129.45501470001182,None,129.45501470001182,None,129.45501470001182,None,130.46647770004347,None,130.46647770004347,None,130.46647770004347,None,0.05,0.2,130.67170820001047,130.73791349999374,130.67170820001047,130.73791349999374,130.67170820001047,130.73791349999374,space,0.22010850004153326,130.67170820001047,None,130.92281670001103,None,1,001,2020_Apr_15_1901,experiment,2020.1.3,60.2992288834478,
images/light_grey_box,images/light_grey_box,images/light_grey_box_with_cue,images/light_grey_box,images/light_grey_box_with_target,images/light_grey_box,0,0.05,0.2,0,33,33,31,,,,,,,,,,,,,131.42202759999782,None,131.42202759999782,None,131.42202759999782,None,132.44118620001245,None,132.44118620001245,None,132.44118620001245,None,0.05,0.2,132.68829910003114,132.8051126000355,132.68829910003114,132.8051126000355,132.68829910003114,132.8051126000355,space,0.2025026999763213,132.68829910003114,None,132.922710200015,None,1,001,2020_Apr_15_1901,experiment,2020.1.3,60.2992288834478,
images/light_grey_box,images/light_grey_box,images/light_grey_box_with_cue,images/light_grey_box,images/light_grey_box_with_target,images/light_grey_box,0,0.1,0.25,0,34,34,52,,,,,,,,,,,,,133.43784530000994,None,133.43784530000994,None,133.43784530000994,None,134.45055260002846,None,134.45055260002846,None,134.45055260002846,None,0.3,0.44999999999999996,134.67177910002647,134.771596400009,134.67177910002647,134.771596400009,134.67177910002647,134.771596400009,space,0.1538614999735728,134.67177910002647,None,134.8553795000189,None,1,001,2020_Apr_15_1901,experiment,2020.1.3,60.2992288834478,
images/light_grey_box_with_cue,images/light_grey_box,images/light_grey_box,images/light_grey_box,images/light_grey_box_with_target,images/light_grey_box,0,0.0,0.15,0,35,35,0,,,,,,,,,,,,,135.35499230003916,None,135.35499230003916,None,135.35499230003916,None,136.3651275000302,None,136.3651275000302,None,136.3651275000302,None,0.2,0.35,136.6032388000167,136.7533130000229,136.6032388000167,136.7533130000229,136.6032388000167,136.7533130000229,space,0.19065270002465695,136.6032388000167,None,136.82133619999513,None,1,001,2020_Apr_15_1901,experiment,2020.1.3,60.2992288834478,
images/light_grey_box,images/light_grey_box,images/light_grey_box_with_cue,images/light_grey_box,images/light_grey_box,images/light_grey_box,0,0.05,0.2,0,36,36,39,,,,,,,,,,,,,137.33650500001386,None,137.33650500001386,None,137.33650500001386,None,138.34552700002678,None,138.34552700002678,None,138.34552700002678,None,0.3,0.44999999999999996,138.55391550000058,None,138.55391550000058,None,138.55391550000058,None,space,0.07902120001381263,138.55391550000058,None,138.65461960004177,None,1,001,2020_Apr_15_1901,experiment,2020.1.3,60.2992288834478,
images/light_grey_box,images/light_grey_box,images/light_grey_box,images/light_grey_box,images/light_grey_box_with_target,images/light_grey_box,0,0.05,0.2,0,37,37,36,,,,,,,,,,,,,139.16964929999085,None,139.16964929999085,None,139.16964929999085,None,140.1767334000324,None,140.1767334000324,None,140.1767334000324,None,0.5,0.65,140.4360206000274,140.51910340000177,140.4360206000274,140.51910340000177,140.4360206000274,140.51910340000177,space,0.14418359997216612,140.4360206000274,None,140.60383119998733,None,1,001,2020_Apr_15_1901,experiment,2020.1.3,60.2992288834478,
images/light_grey_box_with_cue,images/light_grey_box,images/light_grey_box,images/light_grey_box,images/light_grey_box_with_target,images/light_grey_box,0,0.2,0.35,0,38,38,61,,,,,,,,,,,,,141.10271870001452,None,141.10271870001452,None,141.10271870001452,None,142.11433469998883,None,142.11433469998883,None,142.11433469998883,None,0.3,0.44999999999999996,142.38608950003982,142.4691792000085,142.38608950003982,142.4691792000085,142.38608950003982,142.4691792000085,space,0.10984950000420213,142.38608950003982,None,142.52034839999396,None,1,001,2020_Apr_15_1901,experiment,2020.1.3,60.2992288834478,
images/light_grey_box,images/light_grey_box,images/light_grey_box_with_cue,images/light_grey_box,images/light_grey_box_with_target,images/light_grey_box,0,0.3,0.45,0,39,39,91,,,,,,,,,,,,,143.0355619000038,None,143.0355619000038,None,143.0355619000038,None,144.04430780000985,None,144.04430780000985,None,144.04430780000985,None,0.3,0.44999999999999996,144.25195710000116,None,144.25195710000116,None,144.25195710000116,None,space,0.13827820000005886,144.25195710000116,None,144.42047419998562,None,1,001,2020_Apr_15_1901,experiment,2020.1.3,60.2992288834478,
images/light_grey_box_with_cue,images/light_grey_box,images/light_grey_box,images/light_grey_box,images/light_grey_box_with_target,images/light_grey_box,0,0.5,0.65,0,40,40,102,,,,,,,,,,,,,144.9350390000036,None,144.9350390000036,None,144.9350390000036,None,145.9456557999947,None,145.9456557999947,None,145.9456557999947,None,0.1,0.25,146.13475329999346,146.26801320002414,146.13475329999346,146.26801320002414,146.13475329999346,146.26801320002414,space,0.17223500000545755,146.13475329999346,None,146.33642820001114,None,1,001,2020_Apr_15_1901,experiment,2020.1.3,60.2992288834478,
images/light_grey_box_with_cue,images/light_grey_box,images/light_grey_box,images/light_grey_box,images/light_grey_box_with_target,images/light_grey_box,0,0.3,0.45,0,41,41,81,,,,,,,,,,,,,146.85141330002807,None,146.85141330002807,None,146.85141330002807,None,147.8622060000198,None,147.8622060000198,None,147.8622060000198,None,0.05,0.2,148.01263630000176,None,148.01263630000176,None,148.01263630000176,None,space,0.18585529999108985,148.01263630000176,None,148.21900680003455,None,1,001,2020_Apr_15_1901,experiment,2020.1.3,60.2992288834478,
images/light_grey_box_with_cue,images/light_grey_box,images/light_grey_box,images/light_grey_box,images/light_grey_box_with_target,images/light_grey_box,0,0.3,0.45,0,42,42,83,,,,,,,,,,,,,148.73412310000276,None,148.73412310000276,None,148.73412310000276,None,149.74485660000937,None,149.74485660000937,None,149.74485660000937,None,0.0,0.15,150.00184889999218,150.06942910002545,150.00184889999218,150.06942910002545,150.00184889999218,150.06942910002545,space,0.10810670000500977,150.00184889999218,None,150.13925649999874,None,1,001,2020_Apr_15_1901,experiment,2020.1.3,60.2992288834478,
images/light_grey_box,images/light_grey_box,images/light_grey_box_with_cue,images/light_grey_box,images/light_grey_box_with_target,images/light_grey_box,0,0.0,0.15,0,43,43,12,,,,,,,,,,,,,150.65034210000886,None,150.65034210000886,None,150.65034210000886,None,151.67111580003984,None,151.67111580003984,None,151.67111580003984,None,0.5,0.65,151.8501025000005,None,151.8501025000005,None,151.8501025000005,None,space,0.07470110000576824,151.8501025000005,None,151.95100330002606,None,1,001,2020_Apr_15_1901,experiment,2020.1.3,60.2992288834478,
images/light_grey_box_with_cue,images/light_grey_box,images/light_grey_box,images/light_grey_box_with_target,images/light_grey_box,images/light_grey_box,0,0.2,0.35,0,44,44,66,,,,,,,,,,,,,152.45047089998843,None,152.45047089998843,None,152.45047089998843,None,153.46193380001932,None,153.46193380001932,None,153.46193380001932,None,0.0,0.15,153.7330454000039,153.80330339999637,153.7330454000039,153.80330339999637,153.7330454000039,153.80330339999637,space,0.09848589997272938,153.7330454000039,None,153.85360910004238,None,1,001,2020_Apr_15_1901,experiment,2020.1.3,60.2992288834478,
images/light_grey_box_with_cue,images/light_grey_box,images/light_grey_box,images/light_grey_box,images/light_grey_box,images/light_grey_box_with_target,0,0.5,0.65,0,45,45,107,,,,,,,,,,,,,154.366677300015,None,154.366677300015,None,154.366677300015,None,155.37719329999527,None,155.37719329999527,None,155.37719329999527,None,0.3,0.44999999999999996,155.52589390001958,155.749308700033,155.52589390001958,155.749308700033,155.52589390001958,155.749308700033,space,0.4376150000025518,155.52589390001958,None,155.98514980002074,None,1,001,2020_Apr_15_1901,experiment,2020.1.3,60.2992288834478,
images/light_grey_box,images/light_grey_box,images/light_grey_box_with_cue,images/light_grey_box,images/light_grey_box_with_target,images/light_grey_box,0,0.05,0.2,0,46,46,30,,,,,,,,,,,,,156.50185810000403,None,156.50185810000403,None,156.50185810000403,None,157.50851710001007,None,157.50851710001007,None,157.50851710001007,None,0.1,0.25,157.69916200003354,None,157.69916200003354,None,157.69916200003354,None,space,0.14778590004425496,157.69916200003354,None,157.86689950001892,None,1,001,2020_Apr_15_1901,experiment,2020.1.3,60.2992288834478,
images/light_grey_box,images/light_grey_box,images/light_grey_box_with_cue,images/light_grey_box,images/light_grey_box_with_target,images/light_grey_box,0,0.0,0.15,0,47,47,15,,,,,,,,,,,,,158.3822463999968,None,158.3822463999968,None,158.3822463999968,None,159.3909725000267,None,159.3909725000267,None,159.3909725000267,None,0.5,0.65,159.5653120999923,159.68193050002446,159.5653120999923,159.68193050002446,159.5653120999923,159.68193050002446,space,0.1762313999934122,159.5653120999923,None,159.76635709998664,None,1,001,2020_Apr_15_1901,experiment,2020.1.3,60.2992288834478,
images/light_grey_box,images/light_grey_box,images/light_grey_box,images/light_grey_box,images/light_grey_box_with_target,images/light_grey_box,0,0.3,0.45,0,48,48,96,,,,,,,,,,,,,160.28183789999457,None,160.28183789999457,None,160.28183789999457,None,161.28909360000398,None,161.28909360000398,None,161.28909360000398,None,0.5,0.65,161.4435533999931,None,161.4435533999931,None,161.4435533999931,None,space,0.22849439998390153,161.4435533999931,None,161.6997524999897,None,1,001,2020_Apr_15_1901,experiment,2020.1.3,60.2992288834478,
images/light_grey_box_with_cue,images/light_grey_box,images/light_grey_box,images/light_grey_box,images/light_grey_box,images/light_grey_box,0,0.1,0.25,0,49,49,48,,,,,,,,,,,,,162.21484460000647,None,162.21484460000647,None,162.21484460000647,None,163.2256862000213,None,163.2256862000213,None,163.2256862000213,None,0.0,0.15,163.48135910002748,163.58133479999378,163.48135910002748,163.58133479999378,163.48135910002748,163.58133479999378,space,0.10004019999178126,163.48135910002748,None,163.59924420004245,None,1,001,2020_Apr_15_1901,experiment,2020.1.3,60.2992288834478,
images/light_grey_box,images/light_grey_box,images/light_grey_box_with_cue,images/light_grey_box,images/light_grey_box_with_target,images/light_grey_box,0,0.5,0.65,0,50,50,111,,,,,,,,,,,,,164.1148022999987,None,164.1148022999987,None,164.1148022999987,None,165.12380350002786,None,165.12380350002786,None,165.12380350002786,None,0.5,0.65,165.31439660000615,165.44743990001734,165.31439660000615,165.44743990001734,165.31439660000615,165.44743990001734,space,0.27355189999798313,165.31439660000615,None,165.61595730000408,None,1,001,2020_Apr_15_1901,experiment,2020.1.3,60.2992288834478,
images/light_grey_box,images/light_grey_box,images/light_grey_box_with_cue,images/light_grey_box,images/light_grey_box,images/light_grey_box_with_target,0,0.5,0.65,0,51,51,117,,,,,,,,,,,,,166.13090290001128,None,166.13090290001128,None,166.13090290001128,None,167.13956899999175,None,167.13956899999175,None,167.13956899999175,None,0.2,0.35,167.38077570003225,167.5137420000392,167.38077570003225,167.5137420000392,167.38077570003225,167.5137420000392,space,0.11902700003702193,167.38077570003225,None,167.53178329998627,None,1,001,2020_Apr_15_1901,experiment,2020.1.3,60.2992288834478,
images/light_grey_box_with_cue,images/light_grey_box,images/light_grey_box,images/light_grey_box,images/light_grey_box_with_target,images/light_grey_box,0,0.5,0.65,0,52,52,103,,,,,,,,,,,,,168.04715639998903,None,168.04715639998903,None,168.04715639998903,None,169.05864579998888,None,169.05864579998888,None,169.05864579998888,None,0.3,0.44999999999999996,169.24687269999413,169.34678920003353,169.24687269999413,169.34678920003353,169.24687269999413,169.34678920003353,space,0.15248170000268146,169.24687269999413,None,169.416085200035,None,1,001,2020_Apr_15_1901,experiment,2020.1.3,60.2992288834478,
images/light_grey_box_with_cue,images/light_grey_box,images/light_grey_box,images/light_grey_box,images/light_grey_box_with_target,images/light_grey_box,0,0.05,0.2,0,53,53,22,,,,,,,,,,,,,169.93012880004244,None,169.93012880004244,None,169.93012880004244,None,170.9414003000129,None,170.9414003000129,None,170.9414003000129,None,0.5,0.65,171.09052770002745,None,171.09052770002745,None,171.09052770002745,None,space,0.19672649999847636,171.09052770002745,None,171.31394820002606,None,1,001,2020_Apr_15_1901,experiment,2020.1.3,60.2992288834478,
images/light_grey_box_with_cue,images/light_grey_box,images/light_grey_box,images/light_grey_box,images/light_grey_box_with_target,images/light_grey_box,0,0.0,0.15,0,54,54,4,,,,,,,,,,,,,171.8129067000118,None,171.8129067000118,None,171.8129067000118,None,172.82474920002278,None,172.82474920002278,None,172.82474920002278,None,0.05,0.2,173.0104916000273,None,173.0104916000273,None,173.0104916000273,None,space,0.17674879997503012,173.0104916000273,None,173.2140068000299,None,1,001,2020_Apr_15_1901,experiment,2020.1.3,60.2992288834478,
images/light_grey_box,images/light_grey_box,images/light_grey_box_with_cue,images/light_grey_box,images/light_grey_box,images/light_grey_box,0,0.1,0.25,0,55,55,58,,,,,,,,,,,,,173.72914660000242,None,173.72914660000242,None,173.72914660000242,None,174.73784020001767,None,174.73784020001767,None,174.73784020001767,None,0.1,0.25,174.92875860002823,175.0455976999947,174.92875860002823,175.0455976999947,174.92875860002823,175.0455976999947,space,0.16358249995391816,174.92875860002823,None,175.11358830000972,None,1,001,2020_Apr_15_1901,experiment,2020.1.3,60.2992288834478,
images/light_grey_box_with_cue,images/light_grey_box,images/light_grey_box,images/light_grey_box,images/light_grey_box_with_target,images/light_grey_box,0,0.2,0.35,0,56,56,62,,,,,,,,,,,,,175.62881720002042,None,175.62881720002042,None,175.62881720002042,None,176.6402431000024,None,176.6402431000024,None,176.6402431000024,None,0.2,0.35,176.8453620999935,176.9618366000359,176.8453620999935,176.9618366000359,176.8453620999935,176.9618366000359,space,0.21200619998853654,176.8453620999935,None,177.07948559999932,None,1,001,2020_Apr_15_1901,experiment,2020.1.3,60.2992288834478,
images/light_grey_box,images/light_grey_box,images/light_grey_box,images/light_grey_box,images/light_grey_box_with_target,images/light_grey_box,0,0.1,0.25,0,57,57,55,,,,,,,,,,,,,177.59511829999974,None,177.59511829999974,None,177.59511829999974,None,178.6026054000249,None,178.6026054000249,None,178.6026054000249,None,0.2,0.35,178.8781611000304,178.96137830003863,178.8781611000304,178.96137830003863,178.8781611000304,178.96137830003863,space,0.5333095000241883,178.8781611000304,None,179.42955070000608,None,1,001,2020_Apr_15_1901,experiment,2020.1.3,60.2992288834478,
images/light_grey_box,images/light_grey_box,images/light_grey_box_with_cue,images/light_grey_box,images/light_grey_box,images/light_grey_box,0,0.05,0.2,0,58,58,38,,,,,,,,,,,,,179.9446667000302,None,179.9446667000302,None,179.9446667000302,None,180.95453769998858,None,180.95453769998858,None,180.95453769998858,None,0.1,0.25,181.10245529998792,181.29439110000385,181.10245529998792,181.29439110000385,181.10245529998792,181.29439110000385,space,0.5440503000281751,181.10245529998792,None,181.6783507000073,None,1,001,2020_Apr_15_1901,experiment,2020.1.3,60.2992288834478,
images/light_grey_box_with_cue,images/light_grey_box,images/light_grey_box,images/light_grey_box,images/light_grey_box_with_target,images/light_grey_box,0,0.2,0.35,0,59,59,60,,,,,,,,,,,,,182.17786100000376,None,182.17786100000376,None,182.17786100000376,None,183.1897181000095,None,183.1897181000095,None,183.1897181000095,None,0.5,0.65,183.37514860002557,183.49377619998995,183.37514860002557,183.49377619998995,183.37514860002557,183.49377619998995,space,0.39276120002614334,183.37514860002557,None,183.79520059999777,None,1,001,2020_Apr_15_1901,experiment,2020.1.3,60.2992288834478,
images/light_grey_box_with_cue,images/light_grey_box,images/light_grey_box,images/light_grey_box,images/light_grey_box_with_target,images/light_grey_box,0,0.5,0.65,0,60,60,101,,,,,,,,,,,,,184.31049470003927,None,184.31049470003927,None,184.31049470003927,None,185.32099919999018,None,185.32099919999018,None,185.32099919999018,None,0.1,0.25,185.52692810003646,185.61094500002218,185.52692810003646,185.61094500002218,185.52692810003646,185.61094500002218,space,0.3256020999979228,185.52692810003646,None,185.87996930000372,None,1,001,2020_Apr_15_1901,experiment,2020.1.3,60.2992288834478,
images/light_grey_box,images/light_grey_box,images/light_grey_box_with_cue,images/light_grey_box,images/light_grey_box,images/light_grey_box_with_target,0,0.0,0.15,0,61,61,17,,,,,,,,,,,,,186.3937181000365,None,186.3937181000365,None,186.3937181000365,None,187.40253150003264,None,187.40253150003264,None,187.40253150003264,None,0.0,0.15,187.5529838000075,187.69313640001928,187.5529838000075,187.69313640001928,187.5529838000075,187.69313640001928,space,0.32493679999606684,187.5529838000075,None,187.89440470002592,None,1,001,2020_Apr_15_1901,experiment,2020.1.3,60.2992288834478,
images/light_grey_box_with_cue,images/light_grey_box,images/light_grey_box,images/light_grey_box,images/light_grey_box,images/light_grey_box_with_target,0,0.2,0.35,0,62,62,67,,,,,,,,,,,,,188.4104279000312,None,188.4104279000312,None,188.4104279000312,None,189.42153829999734,None,189.42153829999734,None,189.42153829999734,None,0.0,0.15,189.62700390000828,189.70982250000816,189.62700390000828,189.70982250000816,189.62700390000828,189.70982250000816,space,0.20921000000089407,189.62700390000828,None,189.8621819000109,None,1,001,2020_Apr_15_1901,experiment,2020.1.3,60.2992288834478,
images/light_grey_box,images/light_grey_box,images/light_grey_box_with_cue,images/light_grey_box,images/light_grey_box_with_target,images/light_grey_box,0,0.2,0.35,0,63,63,72,,,,,,,,,,,,,190.37578310002573,None,190.37578310002573,None,190.37578310002573,None,191.38525610003853,None,191.38525610003853,None,191.38525610003853,None,0.3,0.44999999999999996,191.53740040003322,191.72565889998805,191.53740040003322,191.72565889998805,191.53740040003322,191.72565889998805,space,0.3158757999772206,191.53740040003322,None,191.8767754000146,None,1,001,2020_Apr_15_1901,experiment,2020.1.3,60.2992288834478,
images/light_grey_box_with_cue,images/light_grey_box,images/light_grey_box,images/light_grey_box_with_target,images/light_grey_box,images/light_grey_box,0,0.0,0.15,0,64,64,6,,,,,,,,,,,,,192.37578559998656,None,192.37578559998656,None,192.37578559998656,None,193.38712690002285,None,193.38712690002285,None,193.38712690002285,None,0.0,0.15,193.62580949999392,193.72532900003716,193.62580949999392,193.72532900003716,193.62580949999392,193.72532900003716,space,0.16888930002460256,193.62580949999392,None,193.8259138999856,None,1,001,2020_Apr_15_1901,experiment,2020.1.3,60.2992288834478,
images/light_grey_box,images/light_grey_box,images/light_grey_box_with_cue,images/light_grey_box,images/light_grey_box,images/light_grey_box,0,0.5,0.65,0,65,65,119,,,,,,,,,,,,,194.32522190001328,None,194.32522190001328,None,194.32522190001328,None,195.33677870000247,None,195.33677870000247,None,195.33677870000247,None,0.05,0.2,195.5115700000315,195.6746020000428,195.5115700000315,195.6746020000428,195.5115700000315,195.6746020000428,space,0.19652259995928034,195.5115700000315,None,195.72645080002258,None,1,001,2020_Apr_15_1901,experiment,2020.1.3,60.2992288834478,
images/light_grey_box_with_cue,images/light_grey_box,images/light_grey_box,images/light_grey_box,images/light_grey_box,images/light_grey_box,0,0.1,0.25,0,66,66,49,,,,,,,,,,,,,196.2411976000294,None,196.2411976000294,None,196.2411976000294,None,197.25219020002987,None,197.25219020002987,None,197.25219020002987,None,0.2,0.35,197.42439820000436,None,197.42439820000436,None,197.42439820000436,None,space,0.13678020000224933,197.42439820000436,None,197.5918036000221,None,1,001,2020_Apr_15_1901,experiment,2020.1.3,60.2992288834478,
images/light_grey_box_with_cue,images/light_grey_box,images/light_grey_box,images/light_grey_box,images/light_grey_box_with_target,images/light_grey_box,0,0.1,0.25,0,67,67,43,,,,,,,,,,,,,198.09104999998817,None,198.09104999998817,None,198.09104999998817,None,199.1029525999911,None,199.1029525999911,None,199.1029525999911,None,0.0,0.15,199.26911009999458,None,199.26911009999458,None,199.26911009999458,None,space,0.23856660001911223,199.26911009999458,None,199.52604100003373,None,1,001,2020_Apr_15_1901,experiment,2020.1.3,60.2992288834478,
images/light_grey_box_with_cue,images/light_grey_box,images/light_grey_box,images/light_grey_box,images/light_grey_box,images/light_grey_box,0,0.05,0.2,0,68,68,28,,,,,,,,,,,,,200.0405264000292,None,200.0405264000292,None,200.0405264000292,None,201.05192679999163,None,201.05192679999163,None,201.05192679999163,None,0.1,0.25,201.27393600001233,201.40702400001464,201.27393600001233,201.40702400001464,201.27393600001233,201.40702400001464,space,0.17393780004931614,201.27393600001233,None,201.4749152000295,None,1,001,2020_Apr_15_1901,experiment,2020.1.3,60.2992288834478,
images/light_grey_box_with_cue,images/light_grey_box,images/light_grey_box,images/light_grey_box,images/light_grey_box_with_target,images/light_grey_box,0,0.2,0.35,0,69,69,64,,,,,,,,,,,,,201.99008110002615,None,201.99008110002615,None,201.99008110002615,None,203.0016923000221,None,203.0016923000221,None,203.0016923000221,None,0.0,0.15,203.17086800001562,203.33981800003676,203.17086800001562,203.33981800003676,203.17086800001562,203.33981800003676,space,0.2775289000128396,203.17086800001562,None,203.4740521000349,None,1,001,2020_Apr_15_1901,experiment,2020.1.3,60.2992288834478,
images/light_grey_box_with_cue,images/light_grey_box,images/light_grey_box,images/light_grey_box,images/light_grey_box_with_target,images/light_grey_box,0,0.3,0.45,0,70,70,85,,,,,,,,,,,,,203.9731759999995,None,203.9731759999995,None,203.9731759999995,None,204.98590630001854,None,204.98590630001854,None,204.98590630001854,None,0.2,0.35,205.18938049999997,205.30624960002024,205.18938049999997,205.30624960002024,205.18938049999997,205.30624960002024,space,0.18355760001577437,205.18938049999997,None,205.3905805000104,None,1,001,2020_Apr_15_1901,experiment,2020.1.3,60.2992288834478,
images/light_grey_box_with_cue,images/light_grey_box,images/light_grey_box,images/light_grey_box,images/light_grey_box_with_target,images/light_grey_box,0,0.0,0.15,0,71,71,5,,,,,,,,,,,,,205.90604520001216,None,205.90604520001216,None,205.90604520001216,None,206.92399590002606,None,206.92399590002606,None,206.92399590002606,None,0.2,0.35,207.13941930001602,207.23929070000304,207.13941930001602,207.23929070000304,207.13941930001602,207.23929070000304,space,0.1702666999772191,207.13941930001602,None,207.34031550004147,None,1,001,2020_Apr_15_1901,experiment,2020.1.3,60.2992288834478,
images/light_grey_box_with_cue,images/light_grey_box,images/light_grey_box,images/light_grey_box,images/light_grey_box_with_target,images/light_grey_box,0,0.05,0.2,0,72,72,21,,,,,,,,,,,,,207.85558999999193,None,207.85558999999193,None,207.85558999999193,None,208.86597430001711,None,208.86597430001711,None,208.86597430001711,None,0.05,0.2,209.05545039998833,209.23867739998968,209.05545039998833,209.23867739998968,209.05545039998833,209.23867739998968,space,0.16946780000580475,209.05545039998833,None,209.25591960002203,None,1,001,2020_Apr_15_1901,experiment,2020.1.3,60.2992288834478,
images/light_grey_box_with_cue,images/light_grey_box,images/light_grey_box,images/light_grey_box,images/light_grey_box_with_target,images/light_grey_box,0,0.2,0.35,0,73,73,65,,,,,,,,,,,,,209.75602690002415,None,209.75602690002415,None,209.75602690002415,None,210.76736060000258,None,210.76736060000258,None,210.76736060000258,None,0.5,0.65,211.00519930000883,211.15501710004173,211.00519930000883,211.15501710004173,211.00519930000883,211.15501710004173,space,2.0040678000077605,211.00519930000883,None,213.04072990000714,None,1,001,2020_Apr_15_1901,experiment,2020.1.3,60.2992288834478,
images/light_grey_box,images/light_grey_box,images/light_grey_box,images/light_grey_box,images/light_grey_box_with_target,images/light_grey_box,0,0.2,0.35,0,74,74,74,,,,,,,,,,,,,213.5549325000029,None,213.5549325000029,None,213.5549325000029,None,214.56284269999014,None,214.56284269999014,None,214.56284269999014,None,0.0,0.15,214.8209138000384,214.90433420002228,214.8209138000384,214.90433420002228,214.8209138000384,214.90433420002228,space,0.20637109997915104,214.8209138000384,None,215.0556854000315,None,1,001,2020_Apr_15_1901,experiment,2020.1.3,60.2992288834478,
images/light_grey_box,images/light_grey_box,images/light_grey_box_with_cue,images/light_grey_box,images/light_grey_box_with_target,images/light_grey_box,0,0.0,0.15,0,75,75,11,,,,,,,,,,,,,215.57086269999854,None,215.57086269999854,None,215.57086269999854,None,216.5847994000069,None,216.5847994000069,None,216.5847994000069,None,0.2,0.35,216.8043680000119,216.92050680000102,216.8043680000119,216.92050680000102,216.8043680000119,216.92050680000102,space,0.16217810002854094,216.8043680000119,None,216.98845030000666,None,1,001,2020_Apr_15_1901,experiment,2020.1.3,60.2992288834478,
images/light_grey_box_with_cue,images/light_grey_box,images/light_grey_box,images/light_grey_box,images/light_grey_box_with_target,images/light_grey_box,0,0.1,0.25,0,76,76,44,,,,,,,,,,,,,217.48738850001246,None,217.48738850001246,None,217.48738850001246,None,218.49917680001818,None,218.49917680001818,None,218.49917680001818,None,0.3,0.44999999999999996,218.75344840000616,218.88665629999014,218.75344840000616,218.88665629999014,218.75344840000616,218.88665629999014,space,0.1292993000242859,218.75344840000616,None,218.9041925999918,None,1,001,2020_Apr_15_1901,experiment,2020.1.3,60.2992288834478,
images/light_grey_box_with_cue,images/light_grey_box,images/light_grey_box,images/light_grey_box,images/light_grey_box,images/light_grey_box,0,0.2,0.35,0,77,77,69,,,,,,,,,,,,,219.40331279998645,None,219.40331279998645,None,219.40331279998645,None,220.4152313999948,None,220.4152313999948,None,220.4152313999948,None,0.05,0.2,220.58040169999003,None,220.58040169999003,None,220.58040169999003,None,space,0.21413360000588,220.58040169999003,None,220.8215499999933,None,1,001,2020_Apr_15_1901,experiment,2020.1.3,60.2992288834478,
images/light_grey_box,images/light_grey_box,images/light_grey_box_with_cue,images/light_grey_box,images/light_grey_box,images/light_grey_box_with_target,0,0.1,0.25,0,78,78,57,,,,,,,,,,,,,221.33621450001374,None,221.33621450001374,None,221.33621450001374,None,222.34497650002595,None,222.34497650002595,None,222.34497650002595,None,0.05,0.2,222.53646560001653,222.70251660002396,222.53646560001653,222.70251660002396,222.53646560001653,222.70251660002396,space,0.4953993000090122,222.53646560001653,None,223.053987900028,None,1,001,2020_Apr_15_1901,experiment,2020.1.3,60.2992288834478,
images/light_grey_box,images/light_grey_box,images/light_grey_box_with_cue,images/light_grey_box,images/light_grey_box,images/light_grey_box_with_target,0,0.05,0.2,0,79,79,37,,,,,,,,,,,,,223.5728553000372,None,223.5728553000372,None,223.5728553000372,None,224.58092620002571,None,224.58092620002571,None,224.58092620002571,None,0.0,0.15,224.75225940003293,224.96880169998622,224.75225940003293,224.96880169998622,224.75225940003293,224.96880169998622,space,0.2577016999712214,224.75225940003293,None,225.03671489999397,None,1,001,2020_Apr_15_1901,experiment,2020.1.3,60.2992288834478,
images/light_grey_box,images/light_grey_box,images/light_grey_box,images/light_grey_box,images/light_grey_box_with_target,images/light_grey_box,0,0.5,0.65,0,80,80,115,,,,,,,,,,,,,225.55284220003523,None,225.55284220003523,None,225.55284220003523,None,226.56094150000717,None,226.56094150000717,None,226.56094150000717,None,0.0,0.15,226.71344600000884,226.91855820000637,226.71344600000884,226.91855820000637,226.71344600000884,226.91855820000637,space,0.6453747000196017,226.71344600000884,None,227.38646499998868,None,1,001,2020_Apr_15_1901,experiment,2020.1.3,60.2992288834478,
images/light_grey_box_with_cue,images/light_grey_box,images/light_grey_box,images/light_grey_box,images/light_grey_box,images/light_grey_box_with_target,0,0.0,0.15,0,81,81,7,,,,,,,,,,,,,227.9017352000228,None,227.9017352000228,None,227.9017352000228,None,228.91324230004102,None,228.91324230004102,None,228.91324230004102,None,0.5,0.65,229.05976149998605,229.3012744000298,229.05976149998605,229.3012744000298,229.05976149998605,229.3012744000298,space,0.6063065000344068,229.05976149998605,None,229.68557279999368,None,1,001,2020_Apr_15_1901,experiment,2020.1.3,60.2992288834478,
images/light_grey_box_with_cue,images/light_grey_box,images/light_grey_box,images/light_grey_box,images/light_grey_box_with_target,images/light_grey_box,0,0.05,0.2,0,82,82,25,,,,,,,,,,,,,230.20130970003083,None,230.20130970003083,None,230.20130970003083,None,231.21203290001722,None,231.21203290001722,None,231.21203290001722,None,0.0,0.15,231.41851769998902,231.61831719998736,231.41851769998902,231.61831719998736,231.41851769998902,231.61831719998736,space,0.679772800009232,231.41851769998902,None,232.118881100032,None,1,001,2020_Apr_15_1901,experiment,2020.1.3,60.2992288834478,
images/light_grey_box,images/light_grey_box,images/light_grey_box,images/light_grey_box,images/light_grey_box_with_target,images/light_grey_box,0,0.1,0.25,0,83,83,53,,,,,,,,,,,,,232.63397540000733,None,232.63397540000733,None,232.63397540000733,None,233.6421227999963,None,233.6421227999963,None,233.6421227999963,None,0.2,0.35,233.85054509999463,233.96711630001664,233.85054509999463,233.96711630001664,233.85054509999463,233.96711630001664,space,0.18276239995611832,233.85054509999463,None,234.05215760000283,None,1,001,2020_Apr_15_1901,experiment,2020.1.3,60.2992288834478,
images/light_grey_box,images/light_grey_box,images/light_grey_box,images/light_grey_box,images/light_grey_box_with_target,images/light_grey_box,0,0.3,0.45,0,84,84,94,,,,,,,,,,,,,234.56712790002348,None,234.56712790002348,None,234.56712790002348,None,235.57558160001645,None,235.57558160001645,None,235.57558160001645,None,0.3,0.44999999999999996,235.7281964000431,235.93332760001067,235.7281964000431,235.93332760001067,235.7281964000431,235.93332760001067,space,0.3285858999588527,235.7281964000431,None,236.08462040004088,None,1,001,2020_Apr_15_1901,experiment,2020.1.3,60.2992288834478,
images/light_grey_box_with_cue,images/light_grey_box,images/light_grey_box,images/light_grey_box,images/light_grey_box,images/light_grey_box,0,0.3,0.45,0,85,85,89,,,,,,,,,,,,,236.59999320004135,None,236.59999320004135,None,236.59999320004135,None,237.61164720001398,None,237.61164720001398,None,237.61164720001398,None,0.0,0.15,237.76987910002936,237.94951830001082,237.76987910002936,237.94951830001082,237.76987910002936,237.94951830001082,space,0.20915409998269752,237.76987910002936,None,238.00085180002498,None,1,001,2020_Apr_15_1901,experiment,2020.1.3,60.2992288834478,
images/light_grey_box_with_cue,images/light_grey_box,images/light_grey_box,images/light_grey_box,images/light_grey_box,images/light_grey_box,0,0.0,0.15,0,86,86,8,,,,,,,,,,,,,238.5162127999938,None,238.5162127999938,None,238.5162127999938,None,239.52727710001636,None,239.52727710001636,None,239.52727710001636,None,0.2,0.35,239.6969395999913,239.83247480000136,239.6969395999913,239.83247480000136,239.6969395999913,239.83247480000136,space,0.2984442999586463,239.6969395999913,None,240.0170766999945,None,1,001,2020_Apr_15_1901,experiment,2020.1.3,60.2992288834478,
images/light_grey_box,images/light_grey_box,images/light_grey_box,images/light_grey_box,images/light_grey_box_with_target,images/light_grey_box,0,0.1,0.25,0,87,87,54,,,,,,,,,,,,,240.5159016000107,None,240.5159016000107,None,240.5159016000107,None,241.52416910004104,None,241.52416910004104,None,241.52416910004104,None,0.5,0.65,241.7130743000307,241.83203839999624,241.7130743000307,241.83203839999624,241.7130743000307,241.83203839999624,space,0.5586955000180751,241.7130743000307,None,242.3002483000164,None,1,001,2020_Apr_15_1901,experiment,2020.1.3,60.2992288834478,
images/light_grey_box,images/light_grey_box,images/light_grey_box_with_cue,images/light_grey_box,images/light_grey_box_with_target,images/light_grey_box,0,0.0,0.15,0,88,88,14,,,,,,,,,,,,,242.81522460002452,None,242.81522460002452,None,242.81522460002452,None,243.82394030003343,None,243.82394030003343,None,243.82394030003343,None,0.2,0.35,244.11590030003572,244.14947870001197,244.11590030003572,244.14947870001197,244.11590030003572,244.14947870001197,space,0.26824020000640303,244.11590030003572,None,244.40250460000243,None,1,001,2020_Apr_15_1901,experiment,2020.1.3,60.2992288834478,
images/light_grey_box,images/light_grey_box,images/light_grey_box,images/light_grey_box,images/light_grey_box_with_target,images/light_grey_box,0,0.05,0.2,0,89,89,33,,,,,,,,,,,,,244.91648690000875,None,244.91648690000875,None,244.91648690000875,None,245.92239950003568,None,245.92239950003568,None,245.92239950003568,None,0.3,0.44999999999999996,246.14798960002372,246.31439100002171,246.14798960002372,246.31439100002171,246.14798960002372,246.31439100002171,space,0.2864067999762483,246.14798960002372,None,246.46590880001895,None,1,001,2020_Apr_15_1901,experiment,2020.1.3,60.2992288834478,
images/light_grey_box,images/light_grey_box,images/light_grey_box_with_cue,images/light_grey_box_with_target,images/light_grey_box,images/light_grey_box,0,0.0,0.15,0,90,90,16,,,,,,,,,,,,,246.9812214000267,None,246.9812214000267,None,246.9812214000267,None,247.99005080002826,None,247.99005080002826,None,247.99005080002826,None,0.1,0.25,248.19752089999383,248.31412100000307,248.19752089999383,248.31412100000307,248.19752089999383,248.31412100000307,space,0.3308515000389889,248.19752089999383,None,248.54970929998672,None,1,001,2020_Apr_15_1901,experiment,2020.1.3,60.2992288834478,
images/light_grey_box,images/light_grey_box,images/light_grey_box_with_cue,images/light_grey_box,images/light_grey_box_with_target,images/light_grey_box,0,0.1,0.25,0,91,91,51,,,,,,,,,,,,,249.0640689000138,None,249.0640689000138,None,249.0640689000138,None,250.0730104999966,None,250.0730104999966,None,250.0730104999966,None,0.3,0.44999999999999996,250.26365730003454,250.41470190003747,250.26365730003454,250.41470190003747,250.26365730003454,250.41470190003747,space,0.250263299967628,250.26365730003454,None,250.5317936000065,None,1,001,2020_Apr_15_1901,experiment,2020.1.3,60.2992288834478,
images/light_grey_box_with_cue,images/light_grey_box,images/light_grey_box,images/light_grey_box,images/light_grey_box_with_target,images/light_grey_box,0,0.3,0.45,0,92,92,82,,,,,,,,,,,,,251.03045409999322,None,251.03045409999322,None,251.03045409999322,None,252.04270450002514,None,252.04270450002514,None,252.04270450002514,None,0.3,0.44999999999999996,252.34662870003376,252.34662870003376,252.34662870003376,252.34662870003376,252.34662870003376,252.34662870003376,space,0.09995040000649169,252.34662870003376,None,252.464795100037,None,1,001,2020_Apr_15_1901,experiment,2020.1.3,60.2992288834478,
images/light_grey_box_with_cue,images/light_grey_box,images/light_grey_box,images/light_grey_box,images/light_grey_box,images/light_grey_box,0,0.0,0.15,0,93,93,9,,,,,,,,,,,,,252.97989840002265,None,252.97989840002265,None,252.97989840002265,None,253.99110230000224,None,253.99110230000224,None,253.99110230000224,None,0.5,0.65,254.24635680002393,254.28066540003056,254.24635680002393,254.28066540003056,254.24635680002393,254.28066540003056,space,0.3278107999940403,254.24635680002393,None,254.59733580000466,None,1,001,2020_Apr_15_1901,experiment,2020.1.3,60.2992288834478,
images/light_grey_box,images/light_grey_box,images/light_grey_box,images/light_grey_box,images/light_grey_box_with_target,images/light_grey_box,0,0.5,0.65,0,94,94,116,,,,,,,,,,,,,255.09978910000063,None,255.09978910000063,None,255.09978910000063,None,256.1208021999919,None,256.1208021999919,None,256.1208021999919,None,0.05,0.2,256.3292913000332,256.47921100002714,256.3292913000332,256.47921100002714,256.3292913000332,256.47921100002714,space,0.7847342000459321,256.3292913000332,None,257.1308804000146,None,1,001,2020_Apr_15_1901,experiment,2020.1.3,60.2992288834478,
images/light_grey_box_with_cue,images/light_grey_box,images/light_grey_box,images/light_grey_box,images/light_grey_box_with_target,images/light_grey_box,0,0.0,0.15,0,95,95,3,,,,,,,,,,,,,257.63098860002356,None,257.63098860002356,None,257.63098860002356,None,258.65829920000397,None,258.65829920000397,None,258.65829920000397,None,0.5,0.65,258.8452757000341,259.011899300036,258.8452757000341,259.011899300036,258.8452757000341,259.011899300036,space,0.6668019999633543,258.8452757000341,None,259.53014230000554,None,1,001,2020_Apr_15_1901,experiment,2020.1.3,60.2992288834478,
images/light_grey_box_with_cue,images/light_grey_box,images/light_grey_box,images/light_grey_box,images/light_grey_box_with_target,images/light_grey_box,0,0.1,0.25,0,96,96,40,,,,,,,,,,,,,260.0452323000063,None,260.0452323000063,None,260.0452323000063,None,261.0573534000432,None,261.0573534000432,None,261.0573534000432,None,0.5,0.65,261.2073282999918,261.3784027000074,261.2073282999918,261.3784027000074,261.2073282999918,261.3784027000074,space,0.6468951000133529,261.2073282999918,None,261.8795989000355,None,1,001,2020_Apr_15_1901,experiment,2020.1.3,60.2992288834478,
images/light_grey_box_with_cue,images/light_grey_box,images/light_grey_box,images/light_grey_box_with_target,images/light_grey_box,images/light_grey_box,0,0.05,0.2,0,97,97,26,,,,,,,,,,,,,262.3946878000279,None,262.3946878000279,None,262.3946878000279,None,263.4060788000352,None,263.4060788000352,None,263.4060788000352,None,0.3,0.44999999999999996,263.64467940002214,263.8111283000326,263.64467940002214,263.8111283000326,263.64467940002214,263.8111283000326,space,0.3182473999913782,263.64467940002214,None,263.99559710000176,None,1,001,2020_Apr_15_1901,experiment,2020.1.3,60.2992288834478,
images/light_grey_box,images/light_grey_box,images/light_grey_box_with_cue,images/light_grey_box,images/light_grey_box,images/light_grey_box_with_target,0,0.3,0.45,0,98,98,97,,,,,,,,,,,,,264.5110599999898,None,264.5110599999898,None,264.5110599999898,None,265.5241618999862,None,265.5241618999862,None,265.5241618999862,None,0.3,0.44999999999999996,265.7112802999909,265.86145630001556,265.7112802999909,265.86145630001556,265.7112802999909,265.86145630001556,space,0.3451675000251271,265.7112802999909,None,266.07839780003997,None,1,001,2020_Apr_15_1901,experiment,2020.1.3,60.2992288834478,
images/light_grey_box_with_cue,images/light_grey_box,images/light_grey_box,images/light_grey_box,images/light_grey_box,images/light_grey_box,0,0.5,0.65,0,99,99,109,,,,,,,,,,,,,266.5938024999923,None,266.5938024999923,None,266.5938024999923,None,267.6047684000223,None,267.6047684000223,None,267.6047684000223,None,0.0,0.15,267.8103063000017,268.01057139999466,267.8103063000017,268.01057139999466,267.8103063000017,268.01057139999466,space,0.5273994000162929,267.8103063000017,None,268.3613850999973,None,1,001,2020_Apr_15_1901,experiment,2020.1.3,60.2992288834478,
images/light_grey_box,images/light_grey_box,images/light_grey_box_with_cue,images/light_grey_box,images/light_grey_box,images/light_grey_box,0,0.1,0.25,0,100,100,59,,,,,,,,,,,,,268.8766993000172,None,268.8766993000172,None,268.8766993000172,None,269.8858564000111,None,269.8858564000111,None,269.8858564000111,None,0.0,0.15,270.03448959998786,270.2262311000377,270.03448959998786,270.2262311000377,270.03448959998786,270.2262311000377,space,0.4332810000050813,270.03448959998786,None,270.49415320000844,None,1,001,2020_Apr_15_1901,experiment,2020.1.3,60.2992288834478,
images/light_grey_box,images/light_grey_box,images/light_grey_box_with_cue,images/light_grey_box,images/light_grey_box,images/light_grey_box,0,0.0,0.15,0,101,101,19,,,,,,,,,,,,,270.9935965000186,None,270.9935965000186,None,270.9935965000186,None,272.00596460001543,None,272.00596460001543,None,272.00596460001543,None,0.3,0.44999999999999996,272.20948020002106,272.3425739000086,272.20948020002106,272.3425739000086,272.20948020002106,272.3425739000086,space,0.27899279998382553,272.20948020002106,None,272.51076570001896,None,1,001,2020_Apr_15_1901,experiment,2020.1.3,60.2992288834478,
images/light_grey_box,images/light_grey_box,images/light_grey_box_with_cue,images/light_grey_box,images/light_grey_box,images/light_grey_box,0,0.0,0.15,0,102,102,18,,,,,,,,,,,,,273.02590170002077,None,273.02590170002077,None,273.02590170002077,None,274.0343231000006,None,274.0343231000006,None,274.0343231000006,None,0.2,0.35,274.22558650001884,274.40891090000514,274.22558650001884,274.40891090000514,274.22558650001884,274.40891090000514,space,0.25760229997104034,274.22558650001884,None,274.5097369000432,None,1,001,2020_Apr_15_1901,experiment,2020.1.3,60.2992288834478,
images/light_grey_box_with_cue,images/light_grey_box,images/light_grey_box,images/light_grey_box,images/light_grey_box,images/light_grey_box,0,0.5,0.65,0,103,103,108,,,,,,,,,,,,,275.0089372000075,None,275.0089372000075,None,275.0089372000075,None,276.02357040002244,None,276.02357040002244,None,276.02357040002244,None,0.3,0.44999999999999996,276.225231599994,276.3917103999993,276.225231599994,276.3917103999993,276.225231599994,276.3917103999993,space,0.2509313000482507,276.225231599994,None,276.49269210000057,None,1,001,2020_Apr_15_1901,experiment,2020.1.3,60.2992288834478,
images/light_grey_box,images/light_grey_box,images/light_grey_box,images/light_grey_box,images/light_grey_box_with_target,images/light_grey_box,0,0.2,0.35,0,104,104,75,,,,,,,,,,,,,276.99207119998755,None,276.99207119998755,None,276.99207119998755,None,278.00161410000874,None,278.00161410000874,None,278.00161410000874,None,0.3,0.44999999999999996,278.29148870002246,278.32474459998775,278.29148870002246,278.32474459998775,278.29148870002246,278.32474459998775,space,0.26735829998506233,278.29148870002246,None,278.5765134000103,None,1,001,2020_Apr_15_1901,experiment,2020.1.3,60.2992288834478,
images/light_grey_box_with_cue,images/light_grey_box,images/light_grey_box,images/light_grey_box,images/light_grey_box_with_target,images/light_grey_box,0,0.05,0.2,0,105,105,23,,,,,,,,,,,,,279.091490300023,None,279.091490300023,None,279.091490300023,None,280.1134350000066,None,280.1134350000066,None,280.1134350000066,None,0.1,0.25,280.26700210000854,280.40887019998627,280.26700210000854,280.40887019998627,280.26700210000854,280.40887019998627,space,0.31018430000403896,280.26700210000854,None,280.6113071999862,None,1,001,2020_Apr_15_1901,experiment,2020.1.3,60.2992288834478,
images/light_grey_box_with_cue,images/light_grey_box,images/light_grey_box,images/light_grey_box,images/light_grey_box,images/light_grey_box_with_target,0,0.1,0.25,0,106,106,47,,,,,,,,,,,,,281.1240794000332,None,281.1240794000332,None,281.1240794000332,None,282.1352988000144,None,282.1352988000144,None,282.1352988000144,None,0.5,0.65,282.30514220002806,282.45745230000466,282.30514220002806,282.45745230000466,282.30514220002806,282.45745230000466,space,0.29242499999236315,282.30514220002806,None,282.62536549998913,None,1,001,2020_Apr_15_1901,experiment,2020.1.3,60.2992288834478,
images/light_grey_box_with_cue,images/light_grey_box,images/light_grey_box,images/light_grey_box,images/light_grey_box_with_target,images/light_grey_box,0,0.3,0.45,0,107,107,84,,,,,,,,,,,,,283.1405564000015,None,283.1405564000015,None,283.1405564000015,None,284.1516442000284,None,284.1516442000284,None,284.1516442000284,None,0.0,0.15,284.37382340000477,284.5575674000429,284.37382340000477,284.5575674000429,284.37382340000477,284.5575674000429,space,0.25250729999970645,284.37382340000477,None,284.657483100018,None,1,001,2020_Apr_15_1901,experiment,2020.1.3,60.2992288834478,
images/light_grey_box_with_cue,images/light_grey_box,images/light_grey_box,images/light_grey_box,images/light_grey_box,images/light_grey_box_with_target,0,0.3,0.45,0,108,108,87,,,,,,,,,,,,,285.15680659998907,None,285.15680659998907,None,285.15680659998907,None,286.1685889000073,None,286.1685889000073,None,286.1685889000073,None,0.1,0.25,286.38984330004314,286.5064019000274,286.38984330004314,286.5064019000274,286.38984330004314,286.5064019000274,space,0.3907253999495879,286.38984330004314,None,286.8076984999934,None,1,001,2020_Apr_15_1901,experiment,2020.1.3,60.2992288834478,
images/light_grey_box,images/light_grey_box,images/light_grey_box_with_cue,images/light_grey_box,images/light_grey_box_with_target,images/light_grey_box,0,0.0,0.15,0,109,109,13,,,,,,,,,,,,,287.32315140002174,None,287.32315140002174,None,287.32315140002174,None,288.3372734999866,None,288.3372734999866,None,288.3372734999866,None,0.5,0.65,288.55607490002876,288.7228117000195,288.55607490002876,288.7228117000195,288.55607490002876,288.7228117000195,space,0.8353238999843597,288.55607490002876,None,289.4237365000299,None,1,001,2020_Apr_15_1901,experiment,2020.1.3,60.2992288834478,
images/light_grey_box_with_cue,images/light_grey_box,images/light_grey_box,images/light_grey_box_with_target,images/light_grey_box,images/light_grey_box,0,0.1,0.25,0,110,110,46,,,,,,,,,,,,,289.92266010004096,None,289.92266010004096,None,289.92266010004096,None,290.93414440000197,None,290.93414440000197,None,290.93414440000197,None,0.2,0.35,291.20560690003913,291.2888587000198,291.20560690003913,291.2888587000198,291.20560690003913,291.2888587000198,space,0.10620899999048561,291.20560690003913,None,291.3402175999945,None,1,001,2020_Apr_15_1901,experiment,2020.1.3,60.2992288834478,
images/light_grey_box,images/light_grey_box,images/light_grey_box,images/light_grey_box,images/light_grey_box_with_target,images/light_grey_box,0,0.5,0.65,0,111,111,114,,,,,,,,,,,,,291.8552902000374,None,291.8552902000374,None,291.8552902000374,None,292.86279470002046,None,292.86279470002046,None,292.86279470002046,None,0.1,0.25,293.0362225000281,293.23839890002273,293.0362225000281,293.23839890002273,293.0362225000281,293.23839890002273,space,0.23756119998870417,293.0362225000281,None,293.3065842000069,None,1,001,2020_Apr_15_1901,experiment,2020.1.3,60.2992288834478,
images/light_grey_box_with_cue,images/light_grey_box,images/light_grey_box,images/light_grey_box,images/light_grey_box_with_target,images/light_grey_box,0,0.5,0.65,0,112,112,104,,,,,,,,,,,,,293.82179900002666,None,293.82179900002666,None,293.82179900002666,None,294.83313640003325,None,294.83313640003325,None,294.83313640003325,None,0.1,0.25,295.0381114000338,None,295.0381114000338,None,295.0381114000338,None,space,0.17415239999536425,295.0381114000338,None,295.23936390003655,None,1,001,2020_Apr_15_1901,experiment,2020.1.3,60.2992288834478,
images/light_grey_box,images/light_grey_box,images/light_grey_box,images/light_grey_box,images/light_grey_box_with_target,images/light_grey_box,0,0.5,0.65,0,113,113,113,,,,,,,,,,,,,295.7545708999969,None,295.7545708999969,None,295.7545708999969,None,296.76183010003297,None,296.76183010003297,None,296.76183010003297,None,0.0,0.15,296.9353528000065,297.13761510001495,296.9353528000065,297.13761510001495,296.9353528000065,297.13761510001495,space,0.22443290002411231,296.9353528000065,None,297.1889941000263,None,1,001,2020_Apr_15_1901,experiment,2020.1.3,60.2992288834478,
images/light_grey_box_with_cue,images/light_grey_box,images/light_grey_box,images/light_grey_box,images/light_grey_box,images/light_grey_box,0,0.2,0.35,0,114,114,68,,,,,,,,,,,,,297.7045220999862,None,297.7045220999862,None,297.7045220999862,None,298.71614530001534,None,298.71614530001534,None,298.71614530001534,None,0.3,0.44999999999999996,298.9205945000285,299.00399250001647,298.9205945000285,299.00399250001647,298.9205945000285,299.00399250001647,space,0.3385711999726482,298.9205945000285,None,299.28875760000665,None,1,001,2020_Apr_15_1901,experiment,2020.1.3,60.2992288834478,
images/light_grey_box_with_cue,images/light_grey_box,images/light_grey_box,images/light_grey_box,images/light_grey_box_with_target,images/light_grey_box,0,0.3,0.45,0,115,115,80,,,,,,,,,,,,,299.8039411000209,None,299.8039411000209,None,299.8039411000209,None,300.81493370002136,None,300.81493370002136,None,300.81493370002136,None,0.2,0.35,301.07033950003097,301.22010119998595,301.07033950003097,301.22010119998595,301.07033950003097,301.22010119998595,space,0.36099080002168193,301.07033950003097,None,301.4552100999863,None,1,001,2020_Apr_15_1901,experiment,2020.1.3,60.2992288834478,
images/light_grey_box,images/light_grey_box,images/light_grey_box,images/light_grey_box,images/light_grey_box_with_target,images/light_grey_box,0,0.3,0.45,0,116,116,95,,,,,,,,,,,,,301.9699676000164,None,301.9699676000164,None,301.9699676000164,None,302.9774044000078,None,302.9774044000078,None,302.9774044000078,None,0.0,0.15,303.1696288000094,None,303.1696288000094,None,303.1696288000094,None,space,0.07784539996646345,303.1696288000094,None,303.2713473000331,None,1,001,2020_Apr_15_1901,experiment,2020.1.3,60.2992288834478,
images/light_grey_box_with_cue,images/light_grey_box,images/light_grey_box,images/light_grey_box,images/light_grey_box_with_target,images/light_grey_box,0,0.1,0.25,0,117,117,42,,,,,,,,,,,,,303.78620110003976,None,303.78620110003976,None,303.78620110003976,None,304.79689789999975,None,304.79689789999975,None,304.79689789999975,None,0.3,0.44999999999999996,305.0028336000396,305.152576100023,305.0028336000396,305.152576100023,305.0028336000396,305.152576100023,space,0.1918569999979809,305.0028336000396,None,305.2209702000255,None,1,001,2020_Apr_15_1901,experiment,2020.1.3,60.2992288834478,
images/light_grey_box_with_cue,images/light_grey_box,images/light_grey_box,images/light_grey_box,images/light_grey_box_with_target,images/light_grey_box,0,0.1,0.25,0,118,118,41,,,,,,,,,,,,,305.73601079999935,None,305.73601079999935,None,305.73601079999935,None,306.7469062000164,None,306.7469062000164,None,306.7469062000164,None,0.3,0.44999999999999996,306.9859207000118,307.0855799000128,306.9859207000118,307.0855799000128,306.9859207000118,307.0855799000128,space,0.17379450000589713,306.9859207000118,None,307.18669450003654,None,1,001,2020_Apr_15_1901,experiment,2020.1.3,60.2992288834478,
images/light_grey_box,images/light_grey_box,images/light_grey_box_with_cue,images/light_grey_box,images/light_grey_box,images/light_grey_box,0,0.3,0.45,0,119,119,99,,,,,,,,,,,,,307.6858707999927,None,307.6858707999927,None,307.6858707999927,None,308.6979020999861,None,308.6979020999861,None,308.6979020999861,None,0.3,0.44999999999999996,308.90212159999646,309.0519282000023,308.90212159999646,309.0519282000023,308.90212159999646,309.0519282000023,space,0.28353370004333556,308.90212159999646,None,309.2034670999856,None,1,001,2020_Apr_15_1901,experiment,2020.1.3,60.2992288834478,
