image_cue_1,image_cue_2,image_cue_3,image_target_1,image_target_2,image_target_3,targetStart,startTime,endTime,trials.thisRepN,trials.thisTrialN,trials.thisN,trials.thisIndex,textWelcome.started,textWelcome.stopped,keyWelcome.keys,keyWelcome.rt,keyWelcome.started,keyWelcome.stopped,textStart.started,textStart.stopped,keyStart.keys,keyStart.rt,keyStart.started,keyStart.stopped,imageTrailBefore_1.started,imageTrailBefore_1.stopped,imageTrialBefore_2.started,imageTrialBefore_2.stopped,imageTrialBefore_3.started,imageTrialBefore_3.stopped,imageTrialCue_1.started,imageTrialCue_1.stopped,imageTrialCue_2.started,imageTrialCue_2.stopped,imageTrialCue_3.started,imageTrialCue_3.stopped,TrialSceenTargetStart,TrialSceenTargetEnd,imageTrialTarget_1.started,imageTrialTarget_1.stopped,imageTrialTarget_2.started,imageTrialTarget_2.stopped,imageTrialTarget_3.started,imageTrialTarget_3.stopped,keyResponse.keys,keyResponse.rt,keyResponse.started,keyResponse.stopped,textBlank500.started,textBlank500.stopped,participant,session,date,expName,psychopyVersion,frameRate,
,,,,,,,,,,,,,53.995516199967824,None,space,78.04416340001626,53.995516199967824,None,,,,,,,,,,,,,,,,,,,,,,,,,,,,,,,,,2,001,2020_Apr_15_1916,experiment,2020.1.3,60.04285861126721,
,,,,,,,,,,,,,,,,,,,132.0822604999994,None,space,4.055883900029585,132.0822604999994,None,,,,,,,,,,,,,,,,,,,,,,,,,,,2,001,2020_Apr_15_1916,experiment,2020.1.3,60.04285861126721,
images/light_grey_box,images/light_grey_box,images/light_grey_box,images/light_grey_box,images/light_grey_box_with_target,images/light_grey_box,0,0.5,0.65,0,0,0,115,,,,,,,,,,,,,136.91207309998572,None,136.91207309998572,None,136.91207309998572,None,137.22084009996615,None,137.22084009996615,None,137.22084009996615,None,0.5,0.65,137.44664059998468,137.61324099998455,137.44664059998468,137.61324099998455,137.44664059998468,137.61324099998455,space,2.8444707000162452,137.44664059998468,None,140.31540570000652,None,2,001,2020_Apr_15_1916,experiment,2020.1.3,60.04285861126721,
images/light_grey_box_with_cue,images/light_grey_box,images/light_grey_box,images/light_grey_box,images/light_grey_box_with_target,images/light_grey_box,0,0.2,0.35,0,1,1,64,,,,,,,,,,,,,140.82962460001,None,140.82962460001,None,140.82962460001,None,141.86996280000312,None,141.86996280000312,None,141.86996280000312,None,0.0,0.15,141.99306890001753,142.16240179998567,141.99306890001753,142.16240179998567,141.99306890001753,142.16240179998567,space,0.4911361000267789,141.99306890001753,None,142.5152707999805,None,2,001,2020_Apr_15_1916,experiment,2020.1.3,60.04285861126721,
images/light_grey_box,images/light_grey_box,images/light_grey_box_with_cue,images/light_grey_box,images/light_grey_box_with_target,images/light_grey_box,0,0.0,0.15,0,2,2,12,,,,,,,,,,,,,143.02988330001244,None,143.02988330001244,None,143.02988330001244,None,144.0479274999816,None,144.0479274999816,None,144.0479274999816,None,0.1,0.25,144.2784818999935,144.39518639998278,144.2784818999935,144.39518639998278,144.2784818999935,144.39518639998278,space,4.3055117999901995,144.2784818999935,None,148.61171779996948,None,2,001,2020_Apr_15_1916,experiment,2020.1.3,60.04285861126721,
images/light_grey_box,images/light_grey_box,images/light_grey_box_with_cue,images/light_grey_box,images/light_grey_box_with_target,images/light_grey_box,0,0.5,0.65,0,3,3,110,,,,,,,,,,,,,149.1110663000145,None,149.1110663000145,None,149.1110663000145,None,150.12463899998693,None,150.12463899998693,None,150.12463899998693,None,0.2,0.35,150.32795359997544,150.47759909997694,150.32795359997544,150.47759909997694,150.32795359997544,150.47759909997694,space,0.4847069999668747,150.32795359997544,None,150.84476519998861,None,2,001,2020_Apr_15_1916,experiment,2020.1.3,60.04285861126721,
images/light_grey_box,images/light_grey_box,images/light_grey_box_with_cue,images/light_grey_box,images/light_grey_box,images/light_grey_box,0,0.3,0.45,0,4,4,98,,,,,,,,,,,,,151.3441124999663,None,151.3441124999663,None,151.3441124999663,None,152.3584123000037,None,152.3584123000037,None,152.3584123000037,None,0.2,0.35,152.52140279999003,152.79358900000807,152.52140279999003,152.79358900000807,152.52140279999003,152.79358900000807,space,5.077230800001416,152.52140279999003,None,157.6267233999679,None,2,001,2020_Apr_15_1916,experiment,2020.1.3,60.04285861126721,
images/light_grey_box,images/light_grey_box,images/light_grey_box,images/light_grey_box,images/light_grey_box_with_target,images/light_grey_box,0,0.2,0.35,0,5,5,76,,,,,,,,,,,,,158.14244399999734,None,158.14244399999734,None,158.14244399999734,None,159.15208410000196,None,159.15208410000196,None,159.15208410000196,None,0.1,0.25,159.32318010000745,159.49219279998215,159.32318010000745,159.49219279998215,159.32318010000745,159.49219279998215,space,0.400209299987182,159.32318010000745,None,159.7430580999935,None,2,001,2020_Apr_15_1916,experiment,2020.1.3,60.04285861126721,
images/light_grey_box_with_cue,images/light_grey_box,images/light_grey_box,images/light_grey_box,images/light_grey_box_with_target,images/light_grey_box,0,0.2,0.35,0,6,6,65,,,,,,,,,,,,,160.2587195999804,None,160.2587195999804,None,160.2587195999804,None,161.27063380001346,None,161.27063380001346,None,161.27063380001346,None,0.3,0.44999999999999996,161.45845289999852,161.69213310000487,161.45845289999852,161.69213310000487,161.45845289999852,161.69213310000487,space,0.3445236999541521,161.45845289999852,None,161.82628330000443,None,2,001,2020_Apr_15_1916,experiment,2020.1.3,60.04285861126721,
images/light_grey_box,images/light_grey_box,images/light_grey_box_with_cue,images/light_grey_box,images/light_grey_box,images/light_grey_box_with_target,0,0.5,0.65,0,7,7,117,,,,,,,,,,,,,162.34160759998485,None,162.34160759998485,None,162.34160759998485,None,163.3542829999933,None,163.3542829999933,None,163.3542829999933,None,0.5,0.65,163.50714739999967,163.72475290001603,163.50714739999967,163.72475290001603,163.50714739999967,163.72475290001603,space,0.6083452999591827,163.50714739999967,None,164.14277619996574,None,2,001,2020_Apr_15_1916,experiment,2020.1.3,60.04285861126721,
images/light_grey_box,images/light_grey_box,images/light_grey_box_with_cue,images/light_grey_box,images/light_grey_box,images/light_grey_box_with_target,0,0.1,0.25,0,8,8,57,,,,,,,,,,,,,164.65795560000697,None,164.65795560000697,None,164.65795560000697,None,165.67212409997592,None,165.67212409997592,None,165.67212409997592,None,0.0,0.15,165.83868629997596,165.9585721999756,165.83868629997596,165.9585721999756,165.83868629997596,165.9585721999756,space,0.360499499947764,165.83868629997596,None,166.22723119996954,None,2,001,2020_Apr_15_1916,experiment,2020.1.3,60.04285861126721,
images/light_grey_box_with_cue,images/light_grey_box,images/light_grey_box,images/light_grey_box,images/light_grey_box_with_target,images/light_grey_box,0,0.3,0.45,0,9,9,84,,,,,,,,,,,,,166.74367509997683,None,166.74367509997683,None,166.74367509997683,None,167.761255099962,None,167.761255099962,None,167.761255099962,None,0.0,0.15,167.97381950001,168.07384389999788,167.97381950001,168.07384389999788,167.97381950001,168.07384389999788,space,0.28747779998229817,167.97381950001,None,168.29129199997988,None,2,001,2020_Apr_15_1916,experiment,2020.1.3,60.04285861126721,
images/light_grey_box_with_cue,images/light_grey_box,images/light_grey_box,images/light_grey_box,images/light_grey_box,images/light_grey_box,0,0.0,0.15,0,10,10,9,,,,,,,,,,,,,168.8070568999974,None,168.8070568999974,None,168.8070568999974,None,169.82344760000706,None,169.82344760000706,None,169.82344760000706,None,0.1,0.25,170.02342179999687,170.139958499989,170.02342179999687,170.139958499989,170.02342179999687,170.139958499989,space,0.9585693000117317,170.02342179999687,None,171.00811589998193,None,2,001,2020_Apr_15_1916,experiment,2020.1.3,60.04285861126721,
images/light_grey_box_with_cue,images/light_grey_box,images/light_grey_box,images/light_grey_box,images/light_grey_box,images/light_grey_box,0,0.2,0.35,0,11,11,69,,,,,,,,,,,,,171.50860980001744,None,171.50860980001744,None,171.50860980001744,None,172.53555380000034,None,172.53555380000034,None,172.53555380000034,None,0.3,0.44999999999999996,172.68375219998416,172.88957729999674,172.68375219998416,172.88957729999674,172.68375219998416,172.88957729999674,space,3.4055140999844298,172.68375219998416,None,176.10664909996558,None,2,001,2020_Apr_15_1916,experiment,2020.1.3,60.04285861126721,
images/light_grey_box_with_cue,images/light_grey_box,images/light_grey_box,images/light_grey_box,images/light_grey_box_with_target,images/light_grey_box,0,0.5,0.65,0,12,12,104,,,,,,,,,,,,,176.6222199999611,None,176.6222199999611,None,176.6222199999611,None,177.64428549999138,None,177.64428549999138,None,177.64428549999138,None,0.2,0.35,177.87246839998988,177.99005769996438,177.87246839998988,177.99005769996438,177.87246839998988,177.99005769996438,space,0.3539811999653466,177.87246839998988,None,178.25823380000656,None,2,001,2020_Apr_15_1916,experiment,2020.1.3,60.04285861126721,
images/light_grey_box_with_cue,images/light_grey_box,images/light_grey_box,images/light_grey_box,images/light_grey_box_with_target,images/light_grey_box,0,0.0,0.15,0,13,13,4,,,,,,,,,,,,,178.7716127000167,None,178.7716127000167,None,178.7716127000167,None,179.78368569997838,None,179.78368569997838,None,179.78368569997838,None,0.3,0.44999999999999996,179.95533879997674,180.1223430999671,179.95533879997674,180.1223430999671,179.95533879997674,180.1223430999671,space,0.2809323000255972,179.95533879997674,None,180.26914119999856,None,2,001,2020_Apr_15_1916,experiment,2020.1.3,60.04285861126721,
images/light_grey_box_with_cue,images/light_grey_box,images/light_grey_box,images/light_grey_box,images/light_grey_box,images/light_grey_box_with_target,0,0.2,0.35,0,14,14,67,,,,,,,,,,,,,180.77134400000796,None,180.77134400000796,None,180.77134400000796,None,181.79486919997726,None,181.79486919997726,None,181.79486919997726,None,0.0,0.15,181.98846620001132,182.20576929999515,181.98846620001132,182.20576929999515,181.98846620001132,182.20576929999515,space,0.33110630000010133,181.98846620001132,None,182.3416811999632,None,2,001,2020_Apr_15_1916,experiment,2020.1.3,60.04285861126721,
images/light_grey_box_with_cue,images/light_grey_box,images/light_grey_box,images/light_grey_box,images/light_grey_box_with_target,images/light_grey_box,0,0.3,0.45,0,15,15,85,,,,,,,,,,,,,182.8555266999756,None,182.8555266999756,None,182.8555266999756,None,183.87018009996973,None,183.87018009996973,None,183.87018009996973,None,0.1,0.25,184.15393709996715,184.15393709996715,184.15393709996715,184.15393709996715,184.15393709996715,184.15393709996715,space,4.839121700031683,184.15393709996715,None,189.021371299983,None,2,001,2020_Apr_15_1916,experiment,2020.1.3,60.04285861126721,
images/light_grey_box_with_cue,images/light_grey_box,images/light_grey_box,images/light_grey_box,images/light_grey_box_with_target,images/light_grey_box,0,0.5,0.65,0,16,16,102,,,,,,,,,,,,,189.53637079999316,None,189.53637079999316,None,189.53637079999316,None,190.54925539996475,None,190.54925539996475,None,190.54925539996475,None,0.5,0.65,190.76940459996695,190.90257079998264,190.76940459996695,190.90257079998264,190.76940459996695,190.90257079998264,space,0.3064379999996163,190.76940459996695,None,191.10392660001526,None,2,001,2020_Apr_15_1916,experiment,2020.1.3,60.04285861126721,
images/light_grey_box_with_cue,images/light_grey_box,images/light_grey_box,images/light_grey_box,images/light_grey_box,images/light_grey_box,0,0.5,0.65,0,17,17,108,,,,,,,,,,,,,191.61950819997583,None,191.61950819997583,None,191.61950819997583,None,192.63608239998575,None,192.63608239998575,None,192.63608239998575,None,0.2,0.35,192.86889059998794,192.95295870001428,192.86889059998794,192.95295870001428,192.86889059998794,192.95295870001428,space,0.18740320001961663,192.86889059998794,None,193.08699069998693,None,2,001,2020_Apr_15_1916,experiment,2020.1.3,60.04285861126721,
images/light_grey_box,images/light_grey_box,images/light_grey_box_with_cue,images/light_grey_box,images/light_grey_box,images/light_grey_box,0,0.5,0.65,0,18,18,119,,,,,,,,,,,,,193.60206269996706,None,193.60206269996706,None,193.60206269996706,None,194.61582519998774,None,194.61582519998774,None,194.61582519998774,None,0.1,0.25,194.81839109997964,194.93560089997482,194.81839109997964,194.93560089997482,194.81839109997964,194.93560089997482,space,0.27089510002406314,194.81839109997964,None,195.11891700001433,None,2,001,2020_Apr_15_1916,experiment,2020.1.3,60.04285861126721,
images/light_grey_box,images/light_grey_box,images/light_grey_box,images/light_grey_box,images/light_grey_box_with_target,images/light_grey_box,0,0.05,0.2,0,19,19,33,,,,,,,,,,,,,195.61854809999932,None,195.61854809999932,None,195.61854809999932,None,196.630559000012,None,196.630559000012,None,196.630559000012,None,0.5,0.65,196.88471469999058,197.13494379998883,196.88471469999058,197.13494379998883,196.88471469999058,197.13494379998883,space,0.42381240002578124,196.88471469999058,None,197.336805799976,None,2,001,2020_Apr_15_1916,experiment,2020.1.3,60.04285861126721,
images/light_grey_box,images/light_grey_box,images/light_grey_box,images/light_grey_box,images/light_grey_box_with_target,images/light_grey_box,0,0.1,0.25,0,20,20,54,,,,,,,,,,,,,197.85122519999277,None,197.85122519999277,None,197.85122519999277,None,198.8609857999836,None,198.8609857999836,None,198.8609857999836,None,0.05,0.2,199.0675872999709,199.2341454999987,199.0675872999709,199.2341454999987,199.0675872999709,199.2341454999987,space,0.2864743000245653,199.0675872999709,None,199.3850295000011,None,2,001,2020_Apr_15_1916,experiment,2020.1.3,60.04285861126721,
images/light_grey_box,images/light_grey_box,images/light_grey_box_with_cue,images/light_grey_box,images/light_grey_box_with_target,images/light_grey_box,0,0.1,0.25,0,21,21,51,,,,,,,,,,,,,199.90095420001308,None,199.90095420001308,None,199.90095420001308,None,200.9129324000096,None,200.9129324000096,None,200.9129324000096,None,0.0,0.15,201.13381959998515,201.25058689998696,201.13381959998515,201.25058689998696,201.13381959998515,201.25058689998696,space,0.27363720000721514,201.13381959998515,None,201.4354466999648,None,2,001,2020_Apr_15_1916,experiment,2020.1.3,60.04285861126721,
images/light_grey_box,images/light_grey_box,images/light_grey_box_with_cue,images/light_grey_box,images/light_grey_box_with_target,images/light_grey_box,0,0.3,0.45,0,22,22,91,,,,,,,,,,,,,201.93592630000785,None,201.93592630000785,None,201.93592630000785,None,202.9797535999678,None,202.9797535999678,None,202.9797535999678,None,0.0,0.15,203.20009369996842,203.2999034000095,203.20009369996842,203.2999034000095,203.20009369996842,203.2999034000095,space,0.2905153999454342,203.20009369996842,None,203.519650799979,None,2,001,2020_Apr_15_1916,experiment,2020.1.3,60.04285861126721,
images/light_grey_box_with_cue,images/light_grey_box,images/light_grey_box,images/light_grey_box,images/light_grey_box,images/light_grey_box,0,0.3,0.45,0,23,23,89,,,,,,,,,,,,,204.0337619999773,None,204.0337619999773,None,204.0337619999773,None,205.04691959999036,None,205.04691959999036,None,205.04691959999036,None,0.05,0.2,205.23297469998943,205.34955859999172,205.23297469998943,205.34955859999172,205.23297469998943,205.34955859999172,space,1.1805143000092357,205.23297469998943,None,206.4335437999689,None,2,001,2020_Apr_15_1916,experiment,2020.1.3,60.04285861126721,
images/light_grey_box,images/light_grey_box,images/light_grey_box_with_cue,images/light_grey_box,images/light_grey_box,images/light_grey_box,0,0.05,0.2,0,24,24,39,,,,,,,,,,,,,206.94932269997662,None,206.94932269997662,None,206.94932269997662,None,207.96189099998446,None,207.96189099998446,None,207.96189099998446,None,0.05,0.2,208.19910069997422,208.24904989998322,208.19910069997422,208.24904989998322,208.19910069997422,208.24904989998322,space,0.36374460003571585,208.19910069997422,None,208.58371699997224,None,2,001,2020_Apr_15_1916,experiment,2020.1.3,60.04285861126721,
images/light_grey_box_with_cue,images/light_grey_box,images/light_grey_box,images/light_grey_box_with_target,images/light_grey_box,images/light_grey_box,0,0.5,0.65,0,25,25,106,,,,,,,,,,,,,209.0988903999678,None,209.0988903999678,None,209.0988903999678,None,210.1106994000147,None,210.1106994000147,None,210.1106994000147,None,0.3,0.44999999999999996,210.28193040000042,210.51541599998018,210.28193040000042,210.51541599998018,210.28193040000042,210.51541599998018,space,0.43502899998566136,210.28193040000042,None,210.74910879996605,None,2,001,2020_Apr_15_1916,experiment,2020.1.3,60.04285861126721,
images/light_grey_box,images/light_grey_box,images/light_grey_box,images/light_grey_box,images/light_grey_box_with_target,images/light_grey_box,0,0.3,0.45,0,26,26,95,,,,,,,,,,,,,211.24861700000474,None,211.24861700000474,None,211.24861700000474,None,212.25915250001708,None,212.25915250001708,None,212.25915250001708,None,0.5,0.65,212.46488189999945,212.61486059997696,212.46488189999945,212.61486059997696,212.46488189999945,212.61486059997696,space,0.32578820001799613,212.46488189999945,None,212.81642039999133,None,2,001,2020_Apr_15_1916,experiment,2020.1.3,60.04285861126721,
images/light_grey_box,images/light_grey_box,images/light_grey_box,images/light_grey_box,images/light_grey_box_with_target,images/light_grey_box,0,0.3,0.45,0,27,27,93,,,,,,,,,,,,,213.33146790001774,None,213.33146790001774,None,213.33146790001774,None,214.35147729999153,None,214.35147729999153,None,214.35147729999153,None,0.05,0.2,214.54858289996628,214.71488970000064,214.54858289996628,214.71488970000064,214.54858289996628,214.71488970000064,space,0.17733350000344217,214.54858289996628,None,214.74979759997223,None,2,001,2020_Apr_15_1916,experiment,2020.1.3,60.04285861126721,
images/light_grey_box,images/light_grey_box,images/light_grey_box_with_cue,images/light_grey_box,images/light_grey_box_with_target,images/light_grey_box,0,0.1,0.25,0,28,28,50,,,,,,,,,,,,,215.2667149999761,None,215.2667149999761,None,215.2667149999761,None,216.28023749997374,None,216.28023749997374,None,216.28023749997374,None,0.05,0.2,216.48087789997226,216.56406669999706,216.48087789997226,216.56406669999706,216.48087789997226,216.56406669999706,space,0.2773035999853164,216.48087789997226,None,216.78212489996804,None,2,001,2020_Apr_15_1916,experiment,2020.1.3,60.04285861126721,
images/light_grey_box,images/light_grey_box,images/light_grey_box_with_cue,images/light_grey_box,images/light_grey_box,images/light_grey_box_with_target,0,0.05,0.2,0,29,29,37,,,,,,,,,,,,,217.29729959997348,None,217.29729959997348,None,217.29729959997348,None,218.30981379997684,None,218.30981379997684,None,218.30981379997684,None,0.0,0.15,218.49705369997537,218.71354590001283,218.49705369997537,218.71354590001283,218.49705369997537,218.71354590001283,space,0.22900229995138943,218.49705369997537,None,218.7480724999914,None,2,001,2020_Apr_15_1916,experiment,2020.1.3,60.04285861126721,
images/light_grey_box,images/light_grey_box,images/light_grey_box_with_cue,images/light_grey_box,images/light_grey_box_with_target,images/light_grey_box,0,0.05,0.2,0,30,30,31,,,,,,,,,,,,,219.26364479999756,None,219.26364479999756,None,219.26364479999756,None,220.27648200001568,None,220.27648200001568,None,220.27648200001568,None,0.0,0.15,220.46323389996542,220.61328350001713,220.46323389996542,220.61328350001713,220.46323389996542,220.61328350001713,space,0.22623460000613704,220.46323389996542,None,220.71412249997957,None,2,001,2020_Apr_15_1916,experiment,2020.1.3,60.04285861126721,
images/light_grey_box,images/light_grey_box,images/light_grey_box_with_cue,images/light_grey_box,images/light_grey_box,images/light_grey_box,0,0.3,0.45,0,31,31,99,,,,,,,,,,,,,221.23003079998307,None,221.23003079998307,None,221.23003079998307,None,222.2417199999909,None,222.2417199999909,None,222.2417199999909,None,0.2,0.35,222.49626079999143,222.62934189999942,222.49626079999143,222.62934189999942,222.49626079999143,222.62934189999942,space,2.2578822000068612,222.49626079999143,None,224.77961729996605,None,2,001,2020_Apr_15_1916,experiment,2020.1.3,60.04285861126721,
images/light_grey_box,images/light_grey_box,images/light_grey_box_with_cue,images/light_grey_box,images/light_grey_box_with_target,images/light_grey_box,0,0.05,0.2,0,32,32,30,,,,,,,,,,,,,225.27918139996473,None,225.27918139996473,None,225.27918139996473,None,226.31072690000292,None,226.31072690000292,None,226.31072690000292,None,0.2,0.35,226.512052999984,226.64664649998304,226.512052999984,226.64664649998304,226.512052999984,226.64664649998304,space,4.608928899979219,226.512052999984,None,231.14624619996175,None,2,001,2020_Apr_15_1916,experiment,2020.1.3,60.04285861126721,
images/light_grey_box_with_cue,images/light_grey_box,images/light_grey_box,images/light_grey_box,images/light_grey_box,images/light_grey_box,0,0.1,0.25,0,33,33,48,,,,,,,,,,,,,231.6611811000039,None,231.6611811000039,None,231.6611811000039,None,232.67336439999053,None,232.67336439999053,None,232.67336439999053,None,0.1,0.25,232.8235776000074,233.06070219998946,232.8235776000074,233.06070219998946,232.8235776000074,233.06070219998946,space,1.3946785000152886,232.8235776000074,None,234.24474699998973,None,2,001,2020_Apr_15_1916,experiment,2020.1.3,60.04285861126721,
images/light_grey_box_with_cue,images/light_grey_box,images/light_grey_box,images/light_grey_box,images/light_grey_box,images/light_grey_box,0,0.5,0.65,0,34,34,109,,,,,,,,,,,,,234.76043709996156,None,234.76043709996156,None,234.76043709996156,None,235.773037499981,None,235.773037499981,None,235.773037499981,None,0.05,0.2,236.02685429999838,236.16000959998928,236.02685429999838,236.16000959998928,236.02685429999838,236.16000959998928,space,0.16232180001679808,236.02685429999838,None,236.21128180000233,None,2,001,2020_Apr_15_1916,experiment,2020.1.3,60.04285861126721,
images/light_grey_box_with_cue,images/light_grey_box,images/light_grey_box,images/light_grey_box,images/light_grey_box_with_target,images/light_grey_box,0,0.1,0.25,0,35,35,40,,,,,,,,,,,,,236.72672049998073,None,236.72672049998073,None,236.72672049998073,None,237.7391076000058,None,237.7391076000058,None,237.7391076000058,None,0.5,0.65,238.02714979997836,238.11070979997749,238.02714979997836,238.11070979997749,238.02714979997836,238.11070979997749,space,0.10787909995997325,238.02714979997836,None,238.16278630000306,None,2,001,2020_Apr_15_1916,experiment,2020.1.3,60.04285861126721,
images/light_grey_box,images/light_grey_box,images/light_grey_box_with_cue,images/light_grey_box,images/light_grey_box,images/light_grey_box,0,0.0,0.15,0,36,36,19,,,,,,,,,,,,,238.67804179998348,None,238.67804179998348,None,238.67804179998348,None,239.6954817000078,None,239.6954817000078,None,239.6954817000078,None,0.05,0.2,239.9425782999606,240.0426626999979,239.9425782999606,240.0426626999979,239.9425782999606,240.0426626999979,space,0.38995230000000447,239.9425782999606,None,240.3601759999874,None,2,001,2020_Apr_15_1916,experiment,2020.1.3,60.04285861126721,
images/light_grey_box_with_cue,images/light_grey_box,images/light_grey_box,images/light_grey_box,images/light_grey_box_with_target,images/light_grey_box,0,0.05,0.2,0,37,37,23,,,,,,,,,,,,,240.87589640001534,None,240.87589640001534,None,240.87589640001534,None,241.88767049997114,None,241.88767049997114,None,241.88767049997114,None,0.3,0.44999999999999996,242.038962599996,242.17553399997996,242.038962599996,242.17553399997996,242.038962599996,242.17553399997996,space,0.38471040001604706,242.038962599996,None,242.4431249999907,None,2,001,2020_Apr_15_1916,experiment,2020.1.3,60.04285861126721,
images/light_grey_box,images/light_grey_box,images/light_grey_box,images/light_grey_box,images/light_grey_box_with_target,images/light_grey_box,0,0.5,0.65,0,38,38,113,,,,,,,,,,,,,242.95880209997995,None,242.95880209997995,None,242.95880209997995,None,243.9690236999886,None,243.9690236999886,None,243.9690236999886,None,0.1,0.25,244.158776199969,244.30846119998023,244.158776199969,244.30846119998023,244.158776199969,244.30846119998023,space,0.2886246999842115,244.158776199969,None,244.4761972000124,None,2,001,2020_Apr_15_1916,experiment,2020.1.3,60.04285861126721,
images/light_grey_box_with_cue,images/light_grey_box,images/light_grey_box,images/light_grey_box_with_target,images/light_grey_box,images/light_grey_box,0,0.05,0.2,0,39,39,26,,,,,,,,,,,,,244.9919218000141,None,244.9919218000141,None,244.9919218000141,None,246.00456149998354,None,246.00456149998354,None,246.00456149998354,None,0.2,0.35,246.15889219997916,246.39135609997902,246.15889219997916,246.39135609997902,246.15889219997916,246.39135609997902,space,0.4831028000335209,246.15889219997916,None,246.6601665999624,None,2,001,2020_Apr_15_1916,experiment,2020.1.3,60.04285861126721,
images/light_grey_box,images/light_grey_box,images/light_grey_box_with_cue,images/light_grey_box,images/light_grey_box,images/light_grey_box,0,0.2,0.35,0,40,40,79,,,,,,,,,,,,,247.17479099996854,None,247.17479099996854,None,247.17479099996854,None,248.18764499999816,None,248.18764499999816,None,248.18764499999816,None,0.3,0.44999999999999996,248.42433760000858,248.49097569996957,248.42433760000858,248.49097569996957,248.42433760000858,248.49097569996957,space,0.18571230000816286,248.42433760000858,None,248.64240999997128,None,2,001,2020_Apr_15_1916,experiment,2020.1.3,60.04285861126721,
images/light_grey_box,images/light_grey_box,images/light_grey_box,images/light_grey_box,images/light_grey_box_with_target,images/light_grey_box,0,0.1,0.25,0,41,41,56,,,,,,,,,,,,,249.1575126000098,None,249.1575126000098,None,249.1575126000098,None,250.1753937000176,None,250.1753937000176,None,250.1753937000176,None,0.5,0.65,250.37385269999504,250.57369079999626,250.37385269999504,250.57369079999626,250.37385269999504,250.57369079999626,space,0.29043920000549406,250.37385269999504,None,250.69193779997295,None,2,001,2020_Apr_15_1916,experiment,2020.1.3,60.04285861126721,
images/light_grey_box_with_cue,images/light_grey_box,images/light_grey_box,images/light_grey_box,images/light_grey_box_with_target,images/light_grey_box,0,0.5,0.65,0,42,42,105,,,,,,,,,,,,,251.20743139996193,None,251.20743139996193,None,251.20743139996193,None,252.2398100999999,None,252.2398100999999,None,252.2398100999999,None,0.3,0.44999999999999996,252.370853099972,252.55814729997655,252.370853099972,252.55814729997655,252.370853099972,252.55814729997655,space,2.7112867000396363,252.370853099972,None,255.10754329996416,None,2,001,2020_Apr_15_1916,experiment,2020.1.3,60.04285861126721,
images/light_grey_box_with_cue,images/light_grey_box,images/light_grey_box,images/light_grey_box,images/light_grey_box_with_target,images/light_grey_box,0,0.3,0.45,0,43,43,81,,,,,,,,,,,,,255.62303539999994,None,255.62303539999994,None,255.62303539999994,None,256.6348054999835,None,256.6348054999835,None,256.6348054999835,None,0.2,0.35,256.82271360000595,256.98934139998164,256.82271360000595,256.98934139998164,256.82271360000595,256.98934139998164,space,0.41424300003563985,256.82271360000595,None,257.2564926999621,None,2,001,2020_Apr_15_1916,experiment,2020.1.3,60.04285861126721,
images/light_grey_box_with_cue,images/light_grey_box,images/light_grey_box,images/light_grey_box,images/light_grey_box,images/light_grey_box,0,0.1,0.25,0,44,44,49,,,,,,,,,,,,,257.75590940000257,None,257.75590940000257,None,257.75590940000257,None,258.7691952000023,None,258.7691952000023,None,258.7691952000023,None,0.05,0.2,258.9535987999989,259.0721615999937,258.9535987999989,259.0721615999937,258.9535987999989,259.0721615999937,space,0.31503329996485263,258.9535987999989,None,259.29027220001444,None,2,001,2020_Apr_15_1916,experiment,2020.1.3,60.04285861126721,
images/light_grey_box_with_cue,images/light_grey_box,images/light_grey_box,images/light_grey_box,images/light_grey_box_with_target,images/light_grey_box,0,0.3,0.45,0,45,45,82,,,,,,,,,,,,,259.80546429997776,None,259.80546429997776,None,259.80546429997776,None,260.81751319998875,None,260.81751319998875,None,260.81751319998875,None,0.0,0.15,261.00512139999773,261.17164379998576,261.00512139999773,261.17164379998576,261.00512139999773,261.17164379998576,space,0.3836460000020452,261.00512139999773,None,261.4061958999955,None,2,001,2020_Apr_15_1916,experiment,2020.1.3,60.04285861126721,
images/light_grey_box_with_cue,images/light_grey_box,images/light_grey_box,images/light_grey_box,images/light_grey_box_with_target,images/light_grey_box,0,0.1,0.25,0,46,46,41,,,,,,,,,,,,,261.90751350001665,None,261.90751350001665,None,261.90751350001665,None,262.93734050000785,None,262.93734050000785,None,262.93734050000785,None,0.3,0.44999999999999996,263.09908529999666,263.3221608999884,263.09908529999666,263.3221608999884,263.09908529999666,263.3221608999884,space,0.32398649997776374,263.09908529999666,None,263.4571975999861,None,2,001,2020_Apr_15_1916,experiment,2020.1.3,60.04285861126721,
images/light_grey_box_with_cue,images/light_grey_box,images/light_grey_box,images/light_grey_box,images/light_grey_box_with_target,images/light_grey_box,0,0.05,0.2,0,47,47,20,,,,,,,,,,,,,263.9713604999706,None,263.9713604999706,None,263.9713604999706,None,264.98294879996683,None,264.98294879996683,None,264.98294879996683,None,0.0,0.15,265.1543779000058,265.30421209998894,265.1543779000058,265.30421209998894,265.1543779000058,265.30421209998894,space,0.27042179997079074,265.1543779000058,None,265.4547288999893,None,2,001,2020_Apr_15_1916,experiment,2020.1.3,60.04285861126721,
images/light_grey_box,images/light_grey_box,images/light_grey_box_with_cue,images/light_grey_box,images/light_grey_box_with_target,images/light_grey_box,0,0.0,0.15,0,48,48,13,,,,,,,,,,,,,265.95432199997595,None,265.95432199997595,None,265.95432199997595,None,266.96770769997966,None,266.96770769997966,None,266.96770769997966,None,0.5,0.65,267.25406080001267,267.3037682999857,267.25406080001267,267.3037682999857,267.25406080001267,267.3037682999857,space,0.21791030000895262,267.25406080001267,None,267.48809639998944,None,2,001,2020_Apr_15_1916,experiment,2020.1.3,60.04285861126721,
images/light_grey_box,images/light_grey_box,images/light_grey_box,images/light_grey_box,images/light_grey_box_with_target,images/light_grey_box,0,0.5,0.65,0,49,49,116,,,,,,,,,,,,,268.0037308000028,None,268.0037308000028,None,268.0037308000028,None,269.0126387999626,None,269.0126387999626,None,269.0126387999626,None,0.0,0.15,269.2370786999818,269.30340669996804,269.2370786999818,269.30340669996804,269.2370786999818,269.30340669996804,space,0.30074770003557205,269.2370786999818,None,269.5540079000057,None,2,001,2020_Apr_15_1916,experiment,2020.1.3,60.04285861126721,
images/light_grey_box,images/light_grey_box,images/light_grey_box_with_cue,images/light_grey_box,images/light_grey_box_with_target,images/light_grey_box,0,0.3,0.45,0,50,50,92,,,,,,,,,,,,,270.05336839996744,None,270.05336839996744,None,270.05336839996744,None,271.0674367999891,None,271.0674367999891,None,271.0674367999891,None,0.1,0.25,271.2697109999717,271.403111099964,271.2697109999717,271.403111099964,271.2697109999717,271.403111099964,space,0.2500618999474682,271.2697109999717,None,271.53692270000465,None,2,001,2020_Apr_15_1916,experiment,2020.1.3,60.04285861126721,
images/light_grey_box,images/light_grey_box,images/light_grey_box_with_cue,images/light_grey_box,images/light_grey_box_with_target,images/light_grey_box,0,0.0,0.15,0,51,51,10,,,,,,,,,,,,,272.0361818000092,None,272.0361818000092,None,272.0361818000092,None,273.0497532999725,None,273.0497532999725,None,273.0497532999725,None,0.3,0.44999999999999996,273.2529068000149,273.3858499999624,273.2529068000149,273.3858499999624,273.2529068000149,273.3858499999624,space,0.2133336999686435,273.2529068000149,None,273.48713630001293,None,2,001,2020_Apr_15_1916,experiment,2020.1.3,60.04285861126721,
images/light_grey_box,images/light_grey_box,images/light_grey_box_with_cue,images/light_grey_box,images/light_grey_box,images/light_grey_box_with_target,0,0.3,0.45,0,52,52,97,,,,,,,,,,,,,273.9879449,None,273.9879449,None,273.9879449,None,275.0323151999619,None,275.0323151999619,None,275.0323151999619,None,0.0,0.15,275.2021202999749,275.37057719996665,275.2021202999749,275.37057719996665,275.2021202999749,275.37057719996665,space,0.318908300017938,275.2021202999749,None,275.5395710999728,None,2,001,2020_Apr_15_1916,experiment,2020.1.3,60.04285861126721,
images/light_grey_box_with_cue,images/light_grey_box,images/light_grey_box,images/light_grey_box,images/light_grey_box_with_target,images/light_grey_box,0,0.3,0.45,0,53,53,83,,,,,,,,,,,,,276.05225349997636,None,276.05225349997636,None,276.05225349997636,None,277.0643362000119,None,277.0643362000119,None,277.0643362000119,None,0.05,0.2,277.2520079999813,277.4688729000045,277.2520079999813,277.4688729000045,277.2520079999813,277.4688729000045,space,0.302102499990724,277.2520079999813,None,277.58576689998154,None,2,001,2020_Apr_15_1916,experiment,2020.1.3,60.04285861126721,
images/light_grey_box,images/light_grey_box,images/light_grey_box_with_cue,images/light_grey_box,images/light_grey_box,images/light_grey_box,0,0.1,0.25,0,54,54,59,,,,,,,,,,,,,278.08521170000313,None,278.08521170000313,None,278.08521170000313,None,279.0983382000122,None,279.0983382000122,None,279.0983382000122,None,0.0,0.15,279.33474620000925,279.50137730001006,279.33474620000925,279.50137730001006,279.33474620000925,279.50137730001006,space,0.20017049997113645,279.33474620000925,None,279.5520553999813,None,2,001,2020_Apr_15_1916,experiment,2020.1.3,60.04285861126721,
images/light_grey_box,images/light_grey_box,images/light_grey_box_with_cue,images/light_grey_box,images/light_grey_box_with_target,images/light_grey_box,0,0.1,0.25,0,55,55,52,,,,,,,,,,,,,280.0513624000014,None,280.0513624000014,None,280.0513624000014,None,281.0650294999941,None,281.0650294999941,None,281.0650294999941,None,0.05,0.2,281.30097340000793,281.4509532999946,281.30097340000793,281.4509532999946,281.30097340000793,281.4509532999946,space,0.2872590000042692,281.30097340000793,None,281.6185436999658,None,2,001,2020_Apr_15_1916,experiment,2020.1.3,60.04285861126721,
images/light_grey_box,images/light_grey_box,images/light_grey_box,images/light_grey_box,images/light_grey_box_with_target,images/light_grey_box,0,0.3,0.45,0,56,56,94,,,,,,,,,,,,,282.13424340001075,None,282.13424340001075,None,282.13424340001075,None,283.14543949998915,None,283.14543949998915,None,283.14543949998915,None,0.0,0.15,283.3338538999669,None,283.3338538999669,None,283.3338538999669,None,space,0.06398389994865283,283.3338538999669,None,283.41948939999565,None,2,001,2020_Apr_15_1916,experiment,2020.1.3,60.04285861126721,
images/light_grey_box_with_cue,images/light_grey_box,images/light_grey_box,images/light_grey_box,images/light_grey_box_with_target,images/light_grey_box,0,0.0,0.15,0,57,57,2,,,,,,,,,,,,,283.9339081000071,None,283.9339081000071,None,283.9339081000071,None,284.94520529999863,None,284.94520529999863,None,284.94520529999863,None,0.05,0.2,285.09732549998444,285.3002015000093,285.09732549998444,285.3002015000093,285.09732549998444,285.3002015000093,space,0.3822461999952793,285.09732549998444,None,285.5014110999764,None,2,001,2020_Apr_15_1916,experiment,2020.1.3,60.04285861126721,
images/light_grey_box,images/light_grey_box,images/light_grey_box_with_cue,images/light_grey_box,images/light_grey_box,images/light_grey_box,0,0.0,0.15,0,58,58,18,,,,,,,,,,,,,286.00229450000916,None,286.00229450000916,None,286.00229450000916,None,287.04045919998316,None,287.04045919998316,None,287.04045919998316,None,0.0,0.15,287.2499807999702,287.3498331999872,287.2499807999702,287.3498331999872,287.2499807999702,287.3498331999872,space,3.6616570000187494,287.2499807999702,None,290.93394469999475,None,2,001,2020_Apr_15_1916,experiment,2020.1.3,60.04285861126721,
images/light_grey_box,images/light_grey_box,images/light_grey_box_with_cue,images/light_grey_box,images/light_grey_box_with_target,images/light_grey_box,0,0.2,0.35,0,59,59,72,,,,,,,,,,,,,291.44912679999834,None,291.44912679999834,None,291.44912679999834,None,292.4664647000027,None,292.4664647000027,None,292.4664647000027,None,0.05,0.2,292.61174169997685,292.78216160001466,292.61174169997685,292.78216160001466,292.61174169997685,292.78216160001466,space,3.6244287000154145,292.61174169997685,None,296.265970700013,None,2,001,2020_Apr_15_1916,experiment,2020.1.3,60.04285861126721,
images/light_grey_box_with_cue,images/light_grey_box,images/light_grey_box,images/light_grey_box,images/light_grey_box_with_target,images/light_grey_box,0,0.05,0.2,0,60,60,21,,,,,,,,,,,,,296.7813413999975,None,296.7813413999975,None,296.7813413999975,None,297.80853490001755,None,297.80853490001755,None,297.80853490001755,None,0.0,0.15,298.0486336000031,298.1158329999889,298.0486336000031,298.1158329999889,298.0486336000031,298.1158329999889,space,0.3291281000128947,298.0486336000031,None,298.4010608000099,None,2,001,2020_Apr_15_1916,experiment,2020.1.3,60.04285861126721,
images/light_grey_box,images/light_grey_box,images/light_grey_box,images/light_grey_box,images/light_grey_box_with_target,images/light_grey_box,0,0.1,0.25,0,61,61,55,,,,,,,,,,,,,298.9165001999936,None,298.9165001999936,None,298.9165001999936,None,299.93743029999314,None,299.93743029999314,None,299.93743029999314,None,0.1,0.25,300.1474715999793,300.24803019996034,300.1474715999793,300.24803019996034,300.1474715999793,300.24803019996034,space,0.38376870000502095,300.1474715999793,None,300.5509400999872,None,2,001,2020_Apr_15_1916,experiment,2020.1.3,60.04285861126721,
images/light_grey_box_with_cue,images/light_grey_box,images/light_grey_box,images/light_grey_box,images/light_grey_box,images/light_grey_box,0,0.05,0.2,0,62,62,28,,,,,,,,,,,,,301.0645699999877,None,301.0645699999877,None,301.0645699999877,None,302.0943411999615,None,302.0943411999615,None,302.0943411999615,None,0.05,0.2,302.28084309998667,302.4813640000066,302.28084309998667,302.4813640000066,302.28084309998667,302.4813640000066,space,1.6192691000178456,302.28084309998667,None,303.93160869996063,None,2,001,2020_Apr_15_1916,experiment,2020.1.3,60.04285861126721,
images/light_grey_box,images/light_grey_box,images/light_grey_box_with_cue,images/light_grey_box,images/light_grey_box_with_target,images/light_grey_box,0,0.2,0.35,0,63,63,71,,,,,,,,,,,,,304.4466790999868,None,304.4466790999868,None,304.4466790999868,None,305.465379900008,None,305.465379900008,None,305.465379900008,None,0.3,0.44999999999999996,305.6296916999854,305.84657880000304,305.6296916999854,305.84657880000304,305.6296916999854,305.84657880000304,space,0.5134776000049897,305.6296916999854,None,306.1652052999707,None,2,001,2020_Apr_15_1916,experiment,2020.1.3,60.04285861126721,
images/light_grey_box_with_cue,images/light_grey_box,images/light_grey_box,images/light_grey_box,images/light_grey_box_with_target,images/light_grey_box,0,0.2,0.35,0,64,64,62,,,,,,,,,,,,,306.6795099999872,None,306.6795099999872,None,306.6795099999872,None,307.7006437999662,None,307.7006437999662,None,307.7006437999662,None,0.2,0.35,307.84378709999146,307.9957615999738,307.84378709999146,307.9957615999738,307.84378709999146,307.9957615999738,space,0.38038799999048933,307.84378709999146,None,308.2485158999916,None,2,001,2020_Apr_15_1916,experiment,2020.1.3,60.04285861126721,
images/light_grey_box,images/light_grey_box,images/light_grey_box,images/light_grey_box,images/light_grey_box_with_target,images/light_grey_box,0,0.2,0.35,0,65,65,75,,,,,,,,,,,,,308.7623740999843,None,308.7623740999843,None,308.7623740999843,None,309.7750862999819,None,309.7750862999819,None,309.7750862999819,None,0.1,0.25,309.94305080000777,310.0791878000018,309.94305080000777,310.0791878000018,309.94305080000777,310.0791878000018,space,0.3525660000159405,309.94305080000777,None,310.31480980000924,None,2,001,2020_Apr_15_1916,experiment,2020.1.3,60.04285861126721,
images/light_grey_box_with_cue,images/light_grey_box,images/light_grey_box,images/light_grey_box,images/light_grey_box_with_target,images/light_grey_box,0,0.1,0.25,0,66,66,42,,,,,,,,,,,,,310.8297417999711,None,310.8297417999711,None,310.8297417999711,None,311.8531861999654,None,311.8531861999654,None,311.8531861999654,None,0.05,0.2,312.0949049000046,312.1448059999966,312.0949049000046,312.1448059999966,312.0949049000046,312.1448059999966,space,0.34112320002168417,312.0949049000046,None,312.46243770001456,None,2,001,2020_Apr_15_1916,experiment,2020.1.3,60.04285861126721,
images/light_grey_box_with_cue,images/light_grey_box,images/light_grey_box,images/light_grey_box_with_target,images/light_grey_box,images/light_grey_box,0,0.3,0.45,0,67,67,86,,,,,,,,,,,,,312.9780446999939,None,312.9780446999939,None,312.9780446999939,None,313.9902061999892,None,313.9902061999892,None,313.9902061999892,None,0.5,0.65,314.2111611000146,314.3277031999896,314.2111611000146,314.3277031999896,314.2111611000146,314.3277031999896,space,0.3154078000225127,314.2111611000146,None,314.5453295999905,None,2,001,2020_Apr_15_1916,experiment,2020.1.3,60.04285861126721,
images/light_grey_box,images/light_grey_box,images/light_grey_box,images/light_grey_box,images/light_grey_box_with_target,images/light_grey_box,0,0.05,0.2,0,68,68,35,,,,,,,,,,,,,315.06099149998045,None,315.06099149998045,None,315.06099149998045,None,316.07197389996145,None,316.07197389996145,None,316.07197389996145,None,0.1,0.25,316.2772979000001,316.4105683999951,316.2772979000001,316.4105683999951,316.2772979000001,316.4105683999951,space,0.30021259997738525,316.2772979000001,None,316.5957428999827,None,2,001,2020_Apr_15_1916,experiment,2020.1.3,60.04285861126721,
images/light_grey_box,images/light_grey_box,images/light_grey_box,images/light_grey_box,images/light_grey_box_with_target,images/light_grey_box,0,0.2,0.35,0,69,69,73,,,,,,,,,,,,,317.11076060001506,None,317.11076060001506,None,317.11076060001506,None,318.12132619996555,None,318.12132619996555,None,318.12132619996555,None,0.0,0.15,318.3605347999837,318.4603119000094,318.3605347999837,318.4603119000094,318.3605347999837,318.4603119000094,space,0.32320429995888844,318.3605347999837,None,318.7115036000032,None,2,001,2020_Apr_15_1916,experiment,2020.1.3,60.04285861126721,
images/light_grey_box,images/light_grey_box,images/light_grey_box_with_cue,images/light_grey_box,images/light_grey_box,images/light_grey_box,0,0.5,0.65,0,70,70,118,,,,,,,,,,,,,319.2267499999725,None,319.2267499999725,None,319.2267499999725,None,320.2391202999861,None,320.2391202999861,None,320.2391202999861,None,0.1,0.25,320.3884784000111,320.5264428000082,320.3884784000111,320.5264428000082,320.3884784000111,320.5264428000082,space,0.4380945000448264,320.3884784000111,None,320.84397419996094,None,2,001,2020_Apr_15_1916,experiment,2020.1.3,60.04285861126721,
images/light_grey_box,images/light_grey_box,images/light_grey_box,images/light_grey_box,images/light_grey_box_with_target,images/light_grey_box,0,0.05,0.2,0,71,71,34,,,,,,,,,,,,,321.35969439998735,None,321.35969439998735,None,321.35969439998735,None,322.37924689997453,None,322.37924689997453,None,322.37924689997453,None,0.5,0.65,322.5594394999789,None,322.5594394999789,None,322.5594394999789,None,space,0.05433499999344349,322.5594394999789,None,322.65832380001666,None,2,001,2020_Apr_15_1916,experiment,2020.1.3,60.04285861126721,
images/light_grey_box_with_cue,images/light_grey_box,images/light_grey_box,images/light_grey_box,images/light_grey_box_with_target,images/light_grey_box,0,0.0,0.15,0,72,72,3,,,,,,,,,,,,,323.1597519000061,None,323.1597519000061,None,323.1597519000061,None,324.17144539998844,None,324.17144539998844,None,324.17144539998844,None,0.2,0.35,324.37581230001524,324.4923224999802,324.37581230001524,324.4923224999802,324.37581230001524,324.4923224999802,space,0.23302010004408658,324.37581230001524,None,324.62702099996386,None,2,001,2020_Apr_15_1916,experiment,2020.1.3,60.04285861126721,
images/light_grey_box_with_cue,images/light_grey_box,images/light_grey_box,images/light_grey_box,images/light_grey_box_with_target,images/light_grey_box,0,0.5,0.65,0,73,73,101,,,,,,,,,,,,,325.14228799997363,None,325.14228799997363,None,325.14228799997363,None,326.1535673000035,None,326.1535673000035,None,326.1535673000035,None,0.0,0.15,326.35857979999855,326.4756384000066,326.35857979999855,326.4756384000066,326.35857979999855,326.4756384000066,space,0.27904599998146296,326.35857979999855,None,326.66007849999005,None,2,001,2020_Apr_15_1916,experiment,2020.1.3,60.04285861126721,
images/light_grey_box_with_cue,images/light_grey_box,images/light_grey_box,images/light_grey_box,images/light_grey_box_with_target,images/light_grey_box,0,0.2,0.35,0,74,74,60,,,,,,,,,,,,,327.1752355999779,None,327.1752355999779,None,327.1752355999779,None,328.1872713000048,None,328.1872713000048,None,328.1872713000048,None,0.5,0.65,328.3748874000157,328.5580866999808,328.3748874000157,328.5580866999808,328.3748874000157,328.5580866999808,space,0.4890434999833815,328.3748874000157,None,328.8928897000151,None,2,001,2020_Apr_15_1916,experiment,2020.1.3,60.04285861126721,
images/light_grey_box_with_cue,images/light_grey_box,images/light_grey_box,images/light_grey_box,images/light_grey_box_with_target,images/light_grey_box,0,0.5,0.65,0,75,75,103,,,,,,,,,,,,,329.40830800001277,None,329.40830800001277,None,329.40830800001277,None,330.42060840001795,None,330.42060840001795,None,330.42060840001795,None,0.1,0.25,330.64106940000784,330.7410599999712,330.64106940000784,330.7410599999712,330.64106940000784,330.7410599999712,space,0.30015090003143996,330.64106940000784,None,330.9585661999881,None,2,001,2020_Apr_15_1916,experiment,2020.1.3,60.04285861126721,
images/light_grey_box,images/light_grey_box,images/light_grey_box_with_cue,images/light_grey_box,images/light_grey_box,images/light_grey_box,0,0.2,0.35,0,76,76,78,,,,,,,,,,,,,331.4747304999619,None,331.4747304999619,None,331.4747304999619,None,332.4866714999662,None,332.4866714999662,None,332.4866714999662,None,0.2,0.35,332.6397054999834,332.8406211999827,332.6397054999834,332.8406211999827,332.6397054999834,332.8406211999827,space,1.4535309000057168,332.6397054999834,None,334.1266532000154,None,2,001,2020_Apr_15_1916,experiment,2020.1.3,60.04285861126721,
images/light_grey_box_with_cue,images/light_grey_box,images/light_grey_box,images/light_grey_box,images/light_grey_box_with_target,images/light_grey_box,0,0.0,0.15,0,77,77,1,,,,,,,,,,,,,334.6409784000134,None,334.6409784000134,None,334.6409784000134,None,335.6684043999994,None,335.6684043999994,None,335.6684043999994,None,0.0,0.15,335.88999100000365,335.9737497000024,335.88999100000365,335.9737497000024,335.88999100000365,335.9737497000024,space,0.3578988999943249,335.88999100000365,None,336.2739111999981,None,2,001,2020_Apr_15_1916,experiment,2020.1.3,60.04285861126721,
images/light_grey_box,images/light_grey_box,images/light_grey_box,images/light_grey_box,images/light_grey_box_with_target,images/light_grey_box,0,0.1,0.25,0,78,78,53,,,,,,,,,,,,,336.7732897999813,None,336.7732897999813,None,336.7732897999813,None,337.78460989997257,None,337.78460989997257,None,337.78460989997257,None,0.05,0.2,338.02294369996525,338.1895133999642,338.02294369996525,338.1895133999642,338.02294369996525,338.1895133999642,space,0.38862739998148754,338.02294369996525,None,338.44216420000885,None,2,001,2020_Apr_15_1916,experiment,2020.1.3,60.04285861126721,
images/light_grey_box,images/light_grey_box,images/light_grey_box_with_cue,images/light_grey_box,images/light_grey_box_with_target,images/light_grey_box,0,0.0,0.15,0,79,79,11,,,,,,,,,,,,,338.9562607000116,None,338.9562607000116,None,338.9562607000116,None,339.96971470001154,None,339.96971470001154,None,339.96971470001154,None,0.0,0.15,340.1393144999747,340.33908479998354,340.1393144999747,340.33908479998354,340.1393144999747,340.33908479998354,space,0.29454739997163415,340.1393144999747,None,340.45797960000345,None,2,001,2020_Apr_15_1916,experiment,2020.1.3,60.04285861126721,
images/light_grey_box_with_cue,images/light_grey_box,images/light_grey_box,images/light_grey_box,images/light_grey_box,images/light_grey_box_with_target,0,0.0,0.15,0,80,80,7,,,,,,,,,,,,,340.9725732000079,None,340.9725732000079,None,340.9725732000079,None,341.98455880000256,None,341.98455880000256,None,341.98455880000256,None,0.5,0.65,342.2056114000152,342.33868709998205,342.2056114000152,342.33868709998205,342.2056114000152,342.33868709998205,space,0.22318640002049506,342.2056114000152,None,342.45679359999485,None,2,001,2020_Apr_15_1916,experiment,2020.1.3,60.04285861126721,
images/light_grey_box_with_cue,images/light_grey_box,images/light_grey_box,images/light_grey_box_with_target,images/light_grey_box,images/light_grey_box,0,0.0,0.15,0,81,81,6,,,,,,,,,,,,,342.97236790001625,None,342.97236790001625,None,342.97236790001625,None,343.98469670000486,None,343.98469670000486,None,343.98469670000486,None,0.0,0.15,344.17183810001006,344.32167899998603,344.17183810001006,344.32167899998603,344.17183810001006,344.32167899998603,space,0.3787628000136465,344.17183810001006,None,344.57292319997214,None,2,001,2020_Apr_15_1916,experiment,2020.1.3,60.04285861126721,
images/light_grey_box,images/light_grey_box,images/light_grey_box_with_cue,images/light_grey_box,images/light_grey_box_with_target,images/light_grey_box,0,0.5,0.65,0,82,82,112,,,,,,,,,,,,,345.0881904999842,None,345.0881904999842,None,345.0881904999842,None,346.11052669998026,None,346.11052669998026,None,346.11052669998026,None,0.05,0.2,346.33930260001216,346.45697379997,346.33930260001216,346.45697379997,346.33930260001216,346.45697379997,space,0.23740310000721365,346.33930260001216,None,346.6077358999755,None,2,001,2020_Apr_15_1916,experiment,2020.1.3,60.04285861126721,
images/light_grey_box_with_cue,images/light_grey_box,images/light_grey_box,images/light_grey_box_with_target,images/light_grey_box,images/light_grey_box,0,0.1,0.25,0,83,83,46,,,,,,,,,,,,,347.12343869998585,None,347.12343869998585,None,347.12343869998585,None,348.1334409000119,None,348.1334409000119,None,348.1334409000119,None,0.05,0.2,348.2867070999928,348.48769899999024,348.2867070999928,348.48769899999024,348.2867070999928,348.48769899999024,space,0.45530490000965074,348.2867070999928,None,348.771704600018,None,2,001,2020_Apr_15_1916,experiment,2020.1.3,60.04285861126721,
images/light_grey_box_with_cue,images/light_grey_box,images/light_grey_box,images/light_grey_box,images/light_grey_box,images/light_grey_box_with_target,0,0.3,0.45,0,84,84,87,,,,,,,,,,,,,349.2873100999859,None,349.2873100999859,None,349.2873100999859,None,350.2990335999639,None,350.2990335999639,None,350.2990335999639,None,0.5,0.65,350.5038407999673,350.6869574000011,350.5038407999673,350.6869574000011,350.5038407999673,350.6869574000011,space,0.6807103999890387,350.5038407999673,None,351.20455480000237,None,2,001,2020_Apr_15_1916,experiment,2020.1.3,60.04285861126721,
images/light_grey_box,images/light_grey_box,images/light_grey_box,images/light_grey_box,images/light_grey_box_with_target,images/light_grey_box,0,0.05,0.2,0,85,85,36,,,,,,,,,,,,,351.70420839998405,None,351.70420839998405,None,351.70420839998405,None,352.71571760001825,None,352.71571760001825,None,352.71571760001825,None,0.05,0.2,352.90105099999346,353.03662799997255,352.90105099999346,353.03662799997255,352.90105099999346,353.03662799997255,space,0.40540620003594086,352.90105099999346,None,353.337062000006,None,2,001,2020_Apr_15_1916,experiment,2020.1.3,60.04285861126721,
images/light_grey_box_with_cue,images/light_grey_box,images/light_grey_box,images/light_grey_box,images/light_grey_box_with_target,images/light_grey_box,0,0.0,0.15,0,86,86,5,,,,,,,,,,,,,353.83674930001143,None,353.83674930001143,None,353.83674930001143,None,354.8491503999685,None,354.8491503999685,None,354.8491503999685,None,0.0,0.15,355.0341482000076,355.23611120000714,355.0341482000076,355.23611120000714,355.0341482000076,355.23611120000714,space,0.34718649997375906,355.0341482000076,None,355.4036799999885,None,2,001,2020_Apr_15_1916,experiment,2020.1.3,60.04285861126721,
images/light_grey_box,images/light_grey_box,images/light_grey_box_with_cue,images/light_grey_box,images/light_grey_box,images/light_grey_box_with_target,0,0.2,0.35,0,87,87,77,,,,,,,,,,,,,355.9194303000113,None,355.9194303000113,None,355.9194303000113,None,356.93082549999235,None,356.93082549999235,None,356.93082549999235,None,0.5,0.65,357.1357726000133,357.3189409999759,357.1357726000133,357.3189409999759,357.1357726000133,357.3189409999759,space,0.2737741000019014,357.1357726000133,None,357.4361072999891,None,2,001,2020_Apr_15_1916,experiment,2020.1.3,60.04285861126721,
images/light_grey_box,images/light_grey_box,images/light_grey_box,images/light_grey_box,images/light_grey_box_with_target,images/light_grey_box,0,0.2,0.35,0,88,88,74,,,,,,,,,,,,,357.9380136000109,None,357.9380136000109,None,357.9380136000109,None,358.97736550000263,None,358.97736550000263,None,358.97736550000263,None,0.05,0.2,359.18555759999435,359.28543789999094,359.18555759999435,359.28543789999094,359.18555759999435,359.28543789999094,space,1.0838096999796107,359.18555759999435,None,360.28798939997796,None,2,001,2020_Apr_15_1916,experiment,2020.1.3,60.04285861126721,
images/light_grey_box_with_cue,images/light_grey_box,images/light_grey_box,images/light_grey_box,images/light_grey_box,images/light_grey_box,0,0.2,0.35,0,89,89,68,,,,,,,,,,,,,360.8019491999876,None,360.8019491999876,None,360.8019491999876,None,361.82036849996075,None,361.82036849996075,None,361.82036849996075,None,0.2,0.35,362.0515760999988,362.1347253000131,362.0515760999988,362.1347253000131,362.0515760999988,362.1347253000131,space,0.2172306000138633,362.0515760999988,None,362.2862352000084,None,2,001,2020_Apr_15_1916,experiment,2020.1.3,60.04285861126721,
images/light_grey_box_with_cue,images/light_grey_box,images/light_grey_box,images/light_grey_box,images/light_grey_box_with_target,images/light_grey_box,0,0.05,0.2,0,90,90,25,,,,,,,,,,,,,362.8013478000066,None,362.8013478000066,None,362.8013478000066,None,363.81275159999495,None,363.81275159999495,None,363.81275159999495,None,0.5,0.65,364.000987300009,364.1676380999852,364.000987300009,364.1676380999852,364.000987300009,364.1676380999852,space,0.3047070999746211,364.000987300009,None,364.3347549000173,None,2,001,2020_Apr_15_1916,experiment,2020.1.3,60.04285861126721,
images/light_grey_box,images/light_grey_box,images/light_grey_box_with_cue,images/light_grey_box,images/light_grey_box_with_target,images/light_grey_box,0,0.0,0.15,0,91,91,14,,,,,,,,,,,,,364.8345113999676,None,364.8345113999676,None,364.8345113999676,None,365.84806930000195,None,365.84806930000195,None,365.84806930000195,None,0.0,0.15,366.05065280001145,366.23386079998454,366.05065280001145,366.23386079998454,366.05065280001145,366.23386079998454,space,0.2691935999901034,366.05065280001145,None,366.35099810000975,None,2,001,2020_Apr_15_1916,experiment,2020.1.3,60.04285861126721,
images/light_grey_box_with_cue,images/light_grey_box,images/light_grey_box,images/light_grey_box,images/light_grey_box,images/light_grey_box_with_target,0,0.5,0.65,0,92,92,107,,,,,,,,,,,,,366.85051630000817,None,366.85051630000817,None,366.85051630000817,None,367.8644791999832,None,367.8644791999832,None,367.8644791999832,None,0.2,0.35,368.0837312999647,368.200131999969,368.0837312999647,368.200131999969,368.0837312999647,368.200131999969,space,0.2864403999992646,368.0837312999647,None,368.40066809998825,None,2,001,2020_Apr_15_1916,experiment,2020.1.3,60.04285861126721,
images/light_grey_box,images/light_grey_box,images/light_grey_box_with_cue,images/light_grey_box,images/light_grey_box,images/light_grey_box,0,0.1,0.25,0,93,93,58,,,,,,,,,,,,,368.90019509999547,None,368.90019509999547,None,368.90019509999547,None,369.92908789997455,None,369.92908789997455,None,369.92908789997455,None,0.5,0.65,370.09052540000994,370.2851723000058,370.09052540000994,370.2851723000058,370.09052540000994,370.2851723000058,space,0.5611573000205681,370.09052540000994,None,370.6699793000007,None,2,001,2020_Apr_15_1916,experiment,2020.1.3,60.04285861126721,
images/light_grey_box_with_cue,images/light_grey_box,images/light_grey_box,images/light_grey_box,images/light_grey_box_with_target,images/light_grey_box,0,0.3,0.45,0,94,94,80,,,,,,,,,,,,,371.1852179999696,None,371.1852179999696,None,371.1852179999696,None,372.2094202999724,None,372.2094202999724,None,372.2094202999724,None,0.5,0.65,372.3837190999766,372.5660292999819,372.3837190999766,372.5660292999819,372.3837190999766,372.5660292999819,space,0.5330299999914132,372.3837190999766,None,372.935223700013,None,2,001,2020_Apr_15_1916,experiment,2020.1.3,60.04285861126721,
images/light_grey_box,images/light_grey_box,images/light_grey_box_with_cue,images/light_grey_box_with_target,images/light_grey_box,images/light_grey_box,0,0.0,0.15,0,95,95,16,,,,,,,,,,,,,373.4495561000076,None,373.4495561000076,None,373.4495561000076,None,374.46115960000316,None,374.46115960000316,None,374.46115960000316,None,0.1,0.25,374.6821570000029,374.8488720000023,374.6821570000029,374.8488720000023,374.6821570000029,374.8488720000023,space,0.32641889998922125,374.6821570000029,None,375.03285610000603,None,2,001,2020_Apr_15_1916,experiment,2020.1.3,60.04285861126721,
images/light_grey_box,images/light_grey_box,images/light_grey_box,images/light_grey_box,images/light_grey_box_with_target,images/light_grey_box,0,0.3,0.45,0,96,96,96,,,,,,,,,,,,,375.532131200016,None,375.532131200016,None,375.532131200016,None,376.5439560000086,None,376.5439560000086,None,376.5439560000086,None,0.0,0.15,376.7984582000063,376.86510019999696,376.7984582000063,376.86510019999696,376.7984582000063,376.86510019999696,space,0.41394539998145774,376.7984582000063,None,377.2326003999915,None,2,001,2020_Apr_15_1916,experiment,2020.1.3,60.04285861126721,
images/light_grey_box_with_cue,images/light_grey_box,images/light_grey_box,images/light_grey_box,images/light_grey_box_with_target,images/light_grey_box,0,0.0,0.15,0,97,97,0,,,,,,,,,,,,,377.74833989999024,None,377.74833989999024,None,377.74833989999024,None,378.7601790999761,None,378.7601790999761,None,378.7601790999761,None,0.3,0.44999999999999996,378.9117822999833,379.04801590001443,378.9117822999833,379.04801590001443,378.9117822999833,379.04801590001443,space,0.4026292000198737,378.9117822999833,None,379.3320639000158,None,2,001,2020_Apr_15_1916,experiment,2020.1.3,60.04285861126721,
images/light_grey_box,images/light_grey_box,images/light_grey_box_with_cue,images/light_grey_box,images/light_grey_box,images/light_grey_box,0,0.05,0.2,0,98,98,38,,,,,,,,,,,,,379.8312918000156,None,379.8312918000156,None,379.8312918000156,None,380.84486630000174,None,380.84486630000174,None,380.84486630000174,None,0.05,0.2,381.0475873000105,381.1975689000101,381.0475873000105,381.1975689000101,381.0475873000105,381.1975689000101,space,0.57815539999865,381.0475873000105,None,381.64896779996343,None,2,001,2020_Apr_15_1916,experiment,2020.1.3,60.04285861126721,
images/light_grey_box_with_cue,images/light_grey_box,images/light_grey_box,images/light_grey_box,images/light_grey_box,images/light_grey_box_with_target,0,0.05,0.2,0,99,99,27,,,,,,,,,,,,,382.15059569996083,None,382.15059569996083,None,382.15059569996083,None,383.1881557999877,None,383.1881557999877,None,383.1881557999877,None,0.2,0.35,383.4149830999668,383.48242199997185,383.4149830999668,383.48242199997185,383.4149830999668,383.48242199997185,space,0.3290300000226125,383.4149830999668,None,383.7687200999935,None,2,001,2020_Apr_15_1916,experiment,2020.1.3,60.04285861126721,
images/light_grey_box_with_cue,images/light_grey_box,images/light_grey_box,images/light_grey_box,images/light_grey_box_with_target,images/light_grey_box,0,0.2,0.35,0,100,100,63,,,,,,,,,,,,,384.28058520000195,None,384.28058520000195,None,384.28058520000195,None,385.29733199998736,None,385.29733199998736,None,385.29733199998736,None,0.0,0.15,385.44378410000354,385.62990920001175,385.44378410000354,385.62990920001175,385.44378410000354,385.62990920001175,space,0.3971433999831788,385.44378410000354,None,385.86497860000236,None,2,001,2020_Apr_15_1916,experiment,2020.1.3,60.04285861126721,
images/light_grey_box,images/light_grey_box,images/light_grey_box_with_cue,images/light_grey_box,images/light_grey_box,images/light_grey_box_with_target,0,0.0,0.15,0,101,101,17,,,,,,,,,,,,,386.38004680001177,None,386.38004680001177,None,386.38004680001177,None,387.3924199999892,None,387.3924199999892,None,387.3924199999892,None,0.5,0.65,387.5964820999652,387.67950389999896,387.5964820999652,387.67950389999896,387.5964820999652,387.67950389999896,space,4.3576360999722965,387.5964820999652,None,391.9799897999619,None,2,001,2020_Apr_15_1916,experiment,2020.1.3,60.04285861126721,
images/light_grey_box,images/light_grey_box,images/light_grey_box_with_cue,images/light_grey_box,images/light_grey_box_with_target,images/light_grey_box,0,0.5,0.65,0,102,102,111,,,,,,,,,,,,,392.4954396999674,None,392.4954396999674,None,392.4954396999674,None,393.50925429997733,None,393.50925429997733,None,393.50925429997733,None,0.05,0.2,393.6783651000005,393.82932329998584,393.6783651000005,393.82932329998584,393.6783651000005,393.82932329998584,space,1.1603194999624975,393.6783651000005,None,394.8651843999978,None,2,001,2020_Apr_15_1916,experiment,2020.1.3,60.04285861126721,
images/light_grey_box,images/light_grey_box,images/light_grey_box,images/light_grey_box,images/light_grey_box_with_target,images/light_grey_box,0,0.5,0.65,0,103,103,114,,,,,,,,,,,,,395.3796132999705,None,395.3796132999705,None,395.3796132999705,None,396.39021089999005,None,396.39021089999005,None,396.39021089999005,None,0.5,0.65,396.6285729999654,396.6778542000102,396.6285729999654,396.6778542000102,396.6285729999654,396.6778542000102,space,0.3933511000359431,396.6285729999654,None,397.04946959996596,None,2,001,2020_Apr_15_1916,experiment,2020.1.3,60.04285861126721,
images/light_grey_box,images/light_grey_box,images/light_grey_box_with_cue,images/light_grey_box,images/light_grey_box_with_target,images/light_grey_box,0,0.2,0.35,0,104,104,70,,,,,,,,,,,,,397.56125540001085,None,397.56125540001085,None,397.56125540001085,None,398.572651399998,None,398.572651399998,None,398.572651399998,None,0.5,0.65,398.7606446999707,398.86069619999034,398.7606446999707,398.86069619999034,398.7606446999707,398.86069619999034,space,1.5170219000428915,398.7606446999707,None,400.2954103999655,None,2,001,2020_Apr_15_1916,experiment,2020.1.3,60.04285861126721,
images/light_grey_box,images/light_grey_box,images/light_grey_box_with_cue,images/light_grey_box,images/light_grey_box_with_target,images/light_grey_box,0,0.0,0.15,0,105,105,15,,,,,,,,,,,,,400.8104960999917,None,400.8104960999917,None,400.8104960999917,None,401.82401159999426,None,401.82401159999426,None,401.82401159999426,None,0.0,0.15,401.9739888999611,402.1099389999872,401.9739888999611,402.1099389999872,401.9739888999611,402.1099389999872,space,0.6858920999802649,401.9739888999611,None,402.67809900001157,None,2,001,2020_Apr_15_1916,experiment,2020.1.3,60.04285861126721,
images/light_grey_box_with_cue,images/light_grey_box,images/light_grey_box,images/light_grey_box,images/light_grey_box_with_target,images/light_grey_box,0,0.1,0.25,0,106,106,44,,,,,,,,,,,,,403.1932639000006,None,403.1932639000006,None,403.1932639000006,None,404.2054394999868,None,404.2054394999868,None,404.2054394999868,None,0.3,0.44999999999999996,404.37627329997486,404.50949049997143,404.37627329997486,404.50949049997143,404.37627329997486,404.50949049997143,space,0.44992600003024563,404.37627329997486,None,404.84398219996365,None,2,001,2020_Apr_15_1916,experiment,2020.1.3,60.04285861126721,
images/light_grey_box,images/light_grey_box,images/light_grey_box_with_cue,images/light_grey_box,images/light_grey_box_with_target,images/light_grey_box,0,0.05,0.2,0,107,107,32,,,,,,,,,,,,,405.3594026999781,None,405.3594026999781,None,405.3594026999781,None,406.3812794999685,None,406.3812794999685,None,406.3812794999685,None,0.0,0.15,406.61020559997996,406.7938281999668,406.61020559997996,406.7938281999668,406.61020559997996,406.7938281999668,space,0.45625540002947673,406.61020559997996,None,407.0953428999637,None,2,001,2020_Apr_15_1916,experiment,2020.1.3,60.04285861126721,
images/light_grey_box,images/light_grey_box,images/light_grey_box_with_cue,images/light_grey_box,images/light_grey_box_with_target,images/light_grey_box,0,0.3,0.45,0,108,108,90,,,,,,,,,,,,,407.61077199998545,None,407.61077199998545,None,407.61077199998545,None,408.6219878999982,None,408.6219878999982,None,408.6219878999982,None,0.05,0.2,408.8255058999639,408.95851259998744,408.8255058999639,408.95851259998744,408.8255058999639,408.95851259998744,space,0.45015490002697334,408.8255058999639,None,409.29311379999854,None,2,001,2020_Apr_15_1916,experiment,2020.1.3,60.04285861126721,
images/light_grey_box_with_cue,images/light_grey_box,images/light_grey_box,images/light_grey_box_with_target,images/light_grey_box,images/light_grey_box,0,0.2,0.35,0,109,109,66,,,,,,,,,,,,,409.8085881000152,None,409.8085881000152,None,409.8085881000152,None,410.8197637000121,None,410.8197637000121,None,410.8197637000121,None,0.05,0.2,411.0081981999683,411.2083101000171,411.0081981999683,411.2083101000171,411.0081981999683,411.2083101000171,space,0.6573665000032634,411.0081981999683,None,411.69226639997214,None,2,001,2020_Apr_15_1916,experiment,2020.1.3,60.04285861126721,
images/light_grey_box_with_cue,images/light_grey_box,images/light_grey_box,images/light_grey_box,images/light_grey_box_with_target,images/light_grey_box,0,0.5,0.65,0,110,110,100,,,,,,,,,,,,,412.1914662999916,None,412.1914662999916,None,412.1914662999916,None,413.2053726000013,None,413.2053726000013,None,413.2053726000013,None,0.0,0.15,413.42448509996757,413.5744836999802,413.42448509996757,413.5744836999802,413.42448509996757,413.5744836999802,space,0.37574659998063,413.42448509996757,None,413.82571409997763,None,2,001,2020_Apr_15_1916,experiment,2020.1.3,60.04285861126721,
images/light_grey_box_with_cue,images/light_grey_box,images/light_grey_box,images/light_grey_box,images/light_grey_box,images/light_grey_box,0,0.3,0.45,0,111,111,88,,,,,,,,,,,,,414.34106399997836,None,414.34106399997836,None,414.34106399997836,None,415.3527502999641,None,415.3527502999641,None,415.3527502999641,None,0.05,0.2,415.5218955000164,415.707288399979,415.5218955000164,415.707288399979,415.5218955000164,415.707288399979,space,0.5927975000231527,415.5218955000164,None,416.14185979997274,None,2,001,2020_Apr_15_1916,experiment,2020.1.3,60.04285861126721,
images/light_grey_box_with_cue,images/light_grey_box,images/light_grey_box,images/light_grey_box,images/light_grey_box_with_target,images/light_grey_box,0,0.1,0.25,0,112,112,45,,,,,,,,,,,,,416.6572313999641,None,416.6572313999641,None,416.6572313999641,None,417.67036129999906,None,417.67036129999906,None,417.67036129999906,None,0.05,0.2,417.8746136999689,418.0070297999773,417.8746136999689,418.0070297999773,417.8746136999689,418.0070297999773,space,0.5233577999752015,417.8746136999689,None,418.42727729998296,None,2,001,2020_Apr_15_1916,experiment,2020.1.3,60.04285861126721,
images/light_grey_box_with_cue,images/light_grey_box,images/light_grey_box,images/light_grey_box,images/light_grey_box_with_target,images/light_grey_box,0,0.05,0.2,0,113,113,24,,,,,,,,,,,,,418.94030369998654,None,418.94030369998654,None,418.94030369998654,None,419.9544907999807,None,419.9544907999807,None,419.9544907999807,None,0.1,0.25,420.2068293999764,420.29033529997105,420.2068293999764,420.29033529997105,420.2068293999764,420.29033529997105,space,0.43007760000182316,420.2068293999764,None,420.65832029999,None,2,001,2020_Apr_15_1916,experiment,2020.1.3,60.04285861126721,
images/light_grey_box_with_cue,images/light_grey_box,images/light_grey_box,images/light_grey_box,images/light_grey_box_with_target,images/light_grey_box,0,0.2,0.35,0,114,114,61,,,,,,,,,,,,,421.17304480000166,None,421.17304480000166,None,421.17304480000166,None,422.18450799997663,None,422.18450799997663,None,422.18450799997663,None,0.2,0.35,422.4726394999889,422.4726394999889,422.4726394999889,422.4726394999889,422.4726394999889,422.4726394999889,space,0.3727047999855131,422.4726394999889,None,422.8738248000154,None,2,001,2020_Apr_15_1916,experiment,2020.1.3,60.04285861126721,
images/light_grey_box_with_cue,images/light_grey_box,images/light_grey_box,images/light_grey_box,images/light_grey_box,images/light_grey_box,0,0.0,0.15,0,115,115,8,,,,,,,,,,,,,423.38923109997995,None,423.38923109997995,None,423.38923109997995,None,424.40132319997065,None,424.40132319997065,None,424.40132319997065,None,0.5,0.65,424.60552320000716,424.77236810000613,424.60552320000716,424.77236810000613,424.60552320000716,424.77236810000613,space,0.7277200999669731,424.60552320000716,None,425.35606499999994,None,2,001,2020_Apr_15_1916,experiment,2020.1.3,60.04285861126721,
images/light_grey_box_with_cue,images/light_grey_box,images/light_grey_box,images/light_grey_box,images/light_grey_box,images/light_grey_box,0,0.05,0.2,0,116,116,29,,,,,,,,,,,,,425.8553276999737,None,425.8553276999737,None,425.8553276999737,None,426.87046780000674,None,426.87046780000674,None,426.87046780000674,None,0.1,0.25,427.10497370001394,427.1717379000038,427.10497370001394,427.1717379000038,427.10497370001394,427.1717379000038,space,0.7728532000328414,427.10497370001394,None,427.9064069999731,None,2,001,2020_Apr_15_1916,experiment,2020.1.3,60.04285861126721,
images/light_grey_box_with_cue,images/light_grey_box,images/light_grey_box,images/light_grey_box,images/light_grey_box,images/light_grey_box_with_target,0,0.1,0.25,0,117,117,47,,,,,,,,,,,,,428.4214664999745,None,428.4214664999745,None,428.4214664999745,None,429.4331613999675,None,429.4331613999675,None,429.4331613999675,None,0.0,0.15,429.58518080000067,429.7712804999901,429.58518080000067,429.7712804999901,429.58518080000067,429.7712804999901,space,0.7089557999861427,429.58518080000067,None,430.32631410000613,None,2,001,2020_Apr_15_1916,experiment,2020.1.3,60.04285861126721,
images/light_grey_box_with_cue,images/light_grey_box,images/light_grey_box,images/light_grey_box,images/light_grey_box_with_target,images/light_grey_box,0,0.05,0.2,0,118,118,22,,,,,,,,,,,,,430.8404736999655,None,430.8404736999655,None,430.8404736999655,None,431.8643161999644,None,431.8643161999644,None,431.8643161999644,None,0.2,0.35,432.0542453000089,432.1874655999709,432.0542453000089,432.1874655999709,432.0542453000089,432.1874655999709,space,0.5303875000099652,432.0542453000089,None,432.605559299991,None,2,001,2020_Apr_15_1916,experiment,2020.1.3,60.04285861126721,
images/light_grey_box_with_cue,images/light_grey_box,images/light_grey_box,images/light_grey_box,images/light_grey_box_with_target,images/light_grey_box,0,0.1,0.25,0,119,119,43,,,,,,,,,,,,,433.1208318999852,None,433.1208318999852,None,433.1208318999852,None,434.13553359999787,None,434.13553359999787,None,434.13553359999787,None,0.3,0.44999999999999996,434.3202340999851,434.43679740000516,434.3202340999851,434.43679740000516,434.3202340999851,434.43679740000516,space,0.6745908000157215,434.3202340999851,None,435.0205663999659,None,2,001,2020_Apr_15_1916,experiment,2020.1.3,60.04285861126721,
