image_cue_1,image_cue_2,image_cue_3,image_target_1,image_target_2,image_target_3,targetStart,startTime,endTime,trials.thisRepN,trials.thisTrialN,trials.thisN,trials.thisIndex,textWelcome.started,textWelcome.stopped,keyWelcome.keys,keyWelcome.rt,keyWelcome.started,keyWelcome.stopped,textStart.started,textStart.stopped,keyStart.keys,keyStart.rt,keyStart.started,keyStart.stopped,imageTrailBefore_1.started,imageTrailBefore_1.stopped,imageTrialBefore_2.started,imageTrialBefore_2.stopped,imageTrialBefore_3.started,imageTrialBefore_3.stopped,imageTrialCue_1.started,imageTrialCue_1.stopped,imageTrialCue_2.started,imageTrialCue_2.stopped,imageTrialCue_3.started,imageTrialCue_3.stopped,TrialSceenTargetStart,TrialSceenTargetEnd,imageTrialTarget_1.started,imageTrialTarget_1.stopped,imageTrialTarget_2.started,imageTrialTarget_2.stopped,imageTrialTarget_3.started,imageTrialTarget_3.stopped,keyResponse.keys,keyResponse.rt,keyResponse.started,keyResponse.stopped,textBlank500.started,textBlank500.stopped,participant,session,date,expName,psychopyVersion,frameRate,
,,,,,,,,,,,,,13.123497200023849,None,space,40.48471829999471,13.123497200023849,None,,,,,,,,,,,,,,,,,,,,,,,,,,,,,,,,,3,001,2020_Apr_15_1924,experiment,2020.1.3,59.98418815933137,
,,,,,,,,,,,,,,,,,,,53.62780850002309,None,space,2.8147260999539867,53.62780850002309,None,,,,,,,,,,,,,,,,,,,,,,,,,,,3,001,2020_Apr_15_1924,experiment,2020.1.3,59.98418815933137,
images/light_grey_box_with_cue,images/light_grey_box,images/light_grey_box,images/light_grey_box,images/light_grey_box,images/light_grey_box_with_target,0,0.05,0.2,0,0,0,27,,,,,,,,,,,,,56.56403649999993,None,56.56403649999993,None,56.56403649999993,None,57.52849100000458,None,57.52849100000458,None,57.52849100000458,None,0.5,0.65,57.70618400000967,57.82280920003541,57.70618400000967,57.82280920003541,57.70618400000967,57.82280920003541,space,5.842072199971881,57.70618400000967,None,63.57516120001674,None,3,001,2020_Apr_15_1924,experiment,2020.1.3,59.98418815933137,
images/light_grey_box,images/light_grey_box,images/light_grey_box,images/light_grey_box,images/light_grey_box_with_target,images/light_grey_box,0,0.3,0.45,0,1,1,96,,,,,,,,,,,,,64.08852210000623,None,64.08852210000623,None,64.08852210000623,None,65.11666120000882,None,65.11666120000882,None,65.11666120000882,None,0.3,0.44999999999999996,65.26912750001065,65.55590620002476,65.26912750001065,65.55590620002476,65.26912750001065,65.55590620002476,space,8.53624889999628,65.26912750001065,None,73.83675050002057,None,3,001,2020_Apr_15_1924,experiment,2020.1.3,59.98418815933137,
images/light_grey_box_with_cue,images/light_grey_box,images/light_grey_box,images/light_grey_box,images/light_grey_box_with_target,images/light_grey_box,0,0.2,0.35,0,2,2,65,,,,,,,,,,,,,74.3386637000367,None,74.3386637000367,None,74.3386637000367,None,75.38026900001569,None,75.38026900001569,None,75.38026900001569,None,0.2,0.35,75.63655090000248,75.67064440000104,75.63655090000248,75.67064440000104,75.63655090000248,75.67064440000104,space,5.615038400050253,75.63655090000248,None,81.26893349998863,None,3,001,2020_Apr_15_1924,experiment,2020.1.3,59.98418815933137,
images/light_grey_box_with_cue,images/light_grey_box,images/light_grey_box,images/light_grey_box,images/light_grey_box_with_target,images/light_grey_box,0,0.0,0.15,0,3,3,1,,,,,,,,,,,,,81.78468620002968,None,81.78468620002968,None,81.78468620002968,None,82.79726960003609,None,82.79726960003609,None,82.79726960003609,None,0.2,0.35,82.94824810000136,None,82.94824810000136,None,82.94824810000136,None,space,0.23678600002313033,82.94824810000136,None,83.201633699995,None,3,001,2020_Apr_15_1924,experiment,2020.1.3,59.98418815933137,
images/light_grey_box_with_cue,images/light_grey_box,images/light_grey_box,images/light_grey_box,images/light_grey_box,images/light_grey_box,0,0.5,0.65,0,4,4,108,,,,,,,,,,,,,83.7010081000044,None,83.7010081000044,None,83.7010081000044,None,84.71324220002862,None,84.71324220002862,None,84.71324220002862,None,0.2,0.35,84.87913840002147,85.03405539999949,84.87913840002147,85.03405539999949,84.87913840002147,85.03405539999949,space,0.41172780003398657,84.87913840002147,None,85.31892170000356,None,3,001,2020_Apr_15_1924,experiment,2020.1.3,59.98418815933137,
images/light_grey_box,images/light_grey_box,images/light_grey_box_with_cue,images/light_grey_box,images/light_grey_box_with_target,images/light_grey_box,0,0.0,0.15,0,5,5,15,,,,,,,,,,,,,85.83388480002759,None,85.83388480002759,None,85.83388480002759,None,86.84689099999378,None,86.84689099999378,None,86.84689099999378,None,0.2,0.35,87.16754300001776,87.18433610000648,87.16754300001776,87.18433610000648,87.16754300001776,87.18433610000648,space,4.269107899977826,87.16754300001776,None,91.46683839999605,None,3,001,2020_Apr_15_1924,experiment,2020.1.3,59.98418815933137,
images/light_grey_box,images/light_grey_box,images/light_grey_box_with_cue,images/light_grey_box,images/light_grey_box,images/light_grey_box_with_target,0,0.05,0.2,0,6,6,37,,,,,,,,,,,,,91.96607060002862,None,91.96607060002862,None,91.96607060002862,None,92.98304810002446,None,92.98304810002446,None,92.98304810002446,None,0.1,0.25,93.16590190003626,93.29903029999696,93.16590190003626,93.29903029999696,93.16590190003626,93.29903029999696,space,2.4102724999538623,93.16590190003626,None,95.59950310003478,None,3,001,2020_Apr_15_1924,experiment,2020.1.3,59.98418815933137,
images/light_grey_box,images/light_grey_box,images/light_grey_box_with_cue,images/light_grey_box,images/light_grey_box_with_target,images/light_grey_box,0,0.3,0.45,0,7,7,92,,,,,,,,,,,,,96.11517730000196,None,96.11517730000196,None,96.11517730000196,None,97.12919260002673,None,97.12919260002673,None,97.12919260002673,None,0.2,0.35,97.38151690002996,97.51487800001632,97.38151690002996,97.51487800001632,97.38151690002996,97.51487800001632,space,0.3541601999895647,97.38151690002996,None,97.76565660000779,None,3,001,2020_Apr_15_1924,experiment,2020.1.3,59.98418815933137,
images/light_grey_box,images/light_grey_box,images/light_grey_box,images/light_grey_box,images/light_grey_box_with_target,images/light_grey_box,0,0.1,0.25,0,8,8,53,,,,,,,,,,,,,98.26831780001521,None,98.26831780001521,None,98.26831780001521,None,99.29316000000108,None,99.29316000000108,None,99.29316000000108,None,0.5,0.65,99.48114550003083,99.68207340000663,99.48114550003083,99.68207340000663,99.48114550003083,99.68207340000663,space,0.3178954999893904,99.48114550003083,None,99.81782250001561,None,3,001,2020_Apr_15_1924,experiment,2020.1.3,59.98418815933137,
images/light_grey_box_with_cue,images/light_grey_box,images/light_grey_box,images/light_grey_box,images/light_grey_box_with_target,images/light_grey_box,0,0.0,0.15,0,9,9,5,,,,,,,,,,,,,100.33263040002203,None,100.33263040002203,None,100.33263040002203,None,101.34292030002689,None,101.34292030002689,None,101.34292030002689,None,0.2,0.35,101.4942757000099,101.63097120000748,101.4942757000099,101.63097120000748,101.4942757000099,101.63097120000748,space,0.2869108999730088,101.4942757000099,None,101.79805179999676,None,3,001,2020_Apr_15_1924,experiment,2020.1.3,59.98418815933137,
images/light_grey_box,images/light_grey_box,images/light_grey_box_with_cue,images/light_grey_box,images/light_grey_box,images/light_grey_box,0,0.0,0.15,0,10,10,19,,,,,,,,,,,,,102.2972843000316,None,102.2972843000316,None,102.2972843000316,None,103.31312290002825,None,103.31312290002825,None,103.31312290002825,None,0.05,0.2,103.53141049999977,103.66397290001623,103.53141049999977,103.66397290001623,103.53141049999977,103.66397290001623,space,0.28577939997194335,103.53141049999977,None,103.84762130002491,None,3,001,2020_Apr_15_1924,experiment,2020.1.3,59.98418815933137,
images/light_grey_box,images/light_grey_box,images/light_grey_box,images/light_grey_box,images/light_grey_box_with_target,images/light_grey_box,0,0.05,0.2,0,11,11,36,,,,,,,,,,,,,104.34692169999471,None,104.34692169999471,None,104.34692169999471,None,105.35826599999564,None,105.35826599999564,None,105.35826599999564,None,0.5,0.65,105.56334420002531,None,105.56334420002531,None,105.56334420002531,None,space,0.039965400006622076,105.56334420002531,None,105.63123500003712,None,3,001,2020_Apr_15_1924,experiment,2020.1.3,59.98418815933137,
images/light_grey_box_with_cue,images/light_grey_box,images/light_grey_box,images/light_grey_box_with_target,images/light_grey_box,images/light_grey_box,0,0.05,0.2,0,12,12,26,,,,,,,,,,,,,106.1465043000062,None,106.1465043000062,None,106.1465043000062,None,107.15840880002361,None,107.15840880002361,None,107.15840880002361,None,0.05,0.2,107.39625970000634,107.49604260001797,107.39625970000634,107.49604260001797,107.39625970000634,107.49604260001797,space,0.13056249998044223,107.39625970000634,None,107.54756259999704,None,3,001,2020_Apr_15_1924,experiment,2020.1.3,59.98418815933137,
images/light_grey_box,images/light_grey_box,images/light_grey_box_with_cue,images/light_grey_box,images/light_grey_box_with_target,images/light_grey_box,0,0.1,0.25,0,13,13,51,,,,,,,,,,,,,108.06285889999708,None,108.06285889999708,None,108.06285889999708,None,109.07474920002278,None,109.07474920002278,None,109.07474920002278,None,0.3,0.44999999999999996,109.24351539998315,109.37909350002883,109.24351539998315,109.37909350002883,109.24351539998315,109.37909350002883,space,0.2027477000374347,109.24351539998315,None,109.46293809998315,None,3,001,2020_Apr_15_1924,experiment,2020.1.3,59.98418815933137,
images/light_grey_box_with_cue,images/light_grey_box,images/light_grey_box,images/light_grey_box,images/light_grey_box_with_target,images/light_grey_box,0,0.05,0.2,0,14,14,25,,,,,,,,,,,,,109.96233140002005,None,109.96233140002005,None,109.96233140002005,None,110.99069020000752,None,110.99069020000752,None,110.99069020000752,None,0.05,0.2,111.19625330000417,111.32937280001352,111.19625330000417,111.32937280001352,111.19625330000417,111.32937280001352,space,0.17529519996605814,111.19625330000417,None,111.39873630000511,None,3,001,2020_Apr_15_1924,experiment,2020.1.3,59.98418815933137,
images/light_grey_box_with_cue,images/light_grey_box,images/light_grey_box,images/light_grey_box,images/light_grey_box_with_target,images/light_grey_box,0,0.1,0.25,0,15,15,42,,,,,,,,,,,,,111.91380760003813,None,111.91380760003813,None,111.91380760003813,None,112.92401810002048,None,112.92401810002048,None,112.92401810002048,None,0.1,0.25,113.11189669999294,113.26186160003999,113.11189669999294,113.26186160003999,113.11189669999294,113.26186160003999,space,0.2562207999872044,113.11189669999294,None,113.395988400036,None,3,001,2020_Apr_15_1924,experiment,2020.1.3,59.98418815933137,
images/light_grey_box_with_cue,images/light_grey_box,images/light_grey_box,images/light_grey_box,images/light_grey_box_with_target,images/light_grey_box,0,0.0,0.15,0,16,16,2,,,,,,,,,,,,,113.91168850002578,None,113.91168850002578,None,113.91168850002578,None,114.92409779998707,None,114.92409779998707,None,114.92409779998707,None,0.2,0.35,115.14484740002081,115.26159419998294,115.14484740002081,115.26159419998294,115.14484740002081,115.26159419998294,space,0.1996256000129506,115.14484740002081,None,115.36412650003331,None,3,001,2020_Apr_15_1924,experiment,2020.1.3,59.98418815933137,
images/light_grey_box_with_cue,images/light_grey_box,images/light_grey_box,images/light_grey_box,images/light_grey_box_with_target,images/light_grey_box,0,0.2,0.35,0,17,17,62,,,,,,,,,,,,,115.87804700003471,None,115.87804700003471,None,115.87804700003471,None,116.89027149998583,None,116.89027149998583,None,116.89027149998583,None,0.1,0.25,117.1276283999905,117.27770919998875,117.1276283999905,117.27770919998875,117.1276283999905,117.27770919998875,space,0.1410467000096105,117.1276283999905,None,117.29563790000975,None,3,001,2020_Apr_15_1924,experiment,2020.1.3,59.98418815933137,
images/light_grey_box,images/light_grey_box,images/light_grey_box,images/light_grey_box,images/light_grey_box_with_target,images/light_grey_box,0,0.05,0.2,0,18,18,33,,,,,,,,,,,,,117.81115070002852,None,117.81115070002852,None,117.81115070002852,None,118.82610440003918,None,118.82610440003918,None,118.82610440003918,None,0.2,0.35,119.17727909999667,119.17727909999667,119.17727909999667,119.17727909999667,119.17727909999667,119.17727909999667,space,1.351699799997732,119.17727909999667,None,120.56131369998911,None,3,001,2020_Apr_15_1924,experiment,2020.1.3,59.98418815933137,
images/light_grey_box,images/light_grey_box,images/light_grey_box_with_cue,images/light_grey_box,images/light_grey_box_with_target,images/light_grey_box,0,0.2,0.35,0,19,19,72,,,,,,,,,,,,,121.07701060001273,None,121.07701060001273,None,121.07701060001273,None,122.08861540001817,None,122.08861540001817,None,122.08861540001817,None,0.0,0.15,122.24828970001545,None,122.24828970001545,None,122.24828970001545,None,space,0.24028530000941828,122.24828970001545,None,122.51799970003776,None,3,001,2020_Apr_15_1924,experiment,2020.1.3,59.98418815933137,
images/light_grey_box_with_cue,images/light_grey_box,images/light_grey_box,images/light_grey_box,images/light_grey_box_with_target,images/light_grey_box,0,0.3,0.45,0,20,20,81,,,,,,,,,,,,,123.02658689999953,None,123.02658689999953,None,123.02658689999953,None,124.05210590001661,None,124.05210590001661,None,124.05210590001661,None,0.2,0.35,124.25981210003374,124.40950489998795,124.25981210003374,124.40950489998795,124.25981210003374,124.40950489998795,space,0.2585679999901913,124.25981210003374,None,124.54519099998288,None,3,001,2020_Apr_15_1924,experiment,2020.1.3,59.98418815933137,
images/light_grey_box_with_cue,images/light_grey_box,images/light_grey_box,images/light_grey_box,images/light_grey_box,images/light_grey_box,0,0.2,0.35,0,21,21,68,,,,,,,,,,,,,125.05994760000613,None,125.05994760000613,None,125.05994760000613,None,126.07935140002519,None,126.07935140002519,None,126.07935140002519,None,0.1,0.25,126.24246909999056,None,126.24246909999056,None,126.24246909999056,None,space,0.09757120005087927,126.24246909999056,None,126.36199010000564,None,3,001,2020_Apr_15_1924,experiment,2020.1.3,59.98418815933137,
images/light_grey_box,images/light_grey_box,images/light_grey_box_with_cue,images/light_grey_box,images/light_grey_box,images/light_grey_box_with_target,0,0.0,0.15,0,22,22,17,,,,,,,,,,,,,126.87626430002274,None,126.87626430002274,None,126.87626430002274,None,127.89643750002142,None,127.89643750002142,None,127.89643750002142,None,0.05,0.2,128.1087225000374,128.1755608000094,128.1087225000374,128.1755608000094,128.1087225000374,128.1755608000094,space,0.1870218000258319,128.1087225000374,None,128.32836310000857,None,3,001,2020_Apr_15_1924,experiment,2020.1.3,59.98418815933137,
images/light_grey_box_with_cue,images/light_grey_box,images/light_grey_box,images/light_grey_box,images/light_grey_box_with_target,images/light_grey_box,0,0.3,0.45,0,23,23,85,,,,,,,,,,,,,128.84223529999144,None,128.84223529999144,None,128.84223529999144,None,129.86608499998692,None,129.86608499998692,None,129.86608499998692,None,0.2,0.35,130.02498849999392,130.22524420003174,130.02498849999392,130.22524420003174,130.02498849999392,130.22524420003174,space,0.2786044000531547,130.02498849999392,None,130.32787540002028,None,3,001,2020_Apr_15_1924,experiment,2020.1.3,59.98418815933137,
images/light_grey_box_with_cue,images/light_grey_box,images/light_grey_box,images/light_grey_box,images/light_grey_box_with_target,images/light_grey_box,0,0.2,0.35,0,24,24,64,,,,,,,,,,,,,130.8414708999917,None,130.8414708999917,None,130.8414708999917,None,131.85377059999155,None,131.85377059999155,None,131.85377059999155,None,0.0,0.15,132.04124669998419,132.2078624999849,132.04124669998419,132.2078624999849,132.04124669998419,132.2078624999849,space,0.23997239995514974,132.04124669998419,None,132.3087678999873,None,3,001,2020_Apr_15_1924,experiment,2020.1.3,59.98418815933137,
images/light_grey_box,images/light_grey_box,images/light_grey_box,images/light_grey_box,images/light_grey_box_with_target,images/light_grey_box,0,0.3,0.45,0,25,25,93,,,,,,,,,,,,,132.8078559000278,None,132.8078559000278,None,132.8078559000278,None,133.81896460003918,None,133.81896460003918,None,133.81896460003918,None,0.1,0.25,133.98792670003604,134.25856350001413,133.98792670003604,134.25856350001413,133.98792670003604,134.25856350001413,space,0.31004479998955503,133.98792670003604,None,134.32794739998644,None,3,001,2020_Apr_15_1924,experiment,2020.1.3,59.98418815933137,
images/light_grey_box_with_cue,images/light_grey_box,images/light_grey_box,images/light_grey_box,images/light_grey_box_with_target,images/light_grey_box,0,0.3,0.45,0,26,26,80,,,,,,,,,,,,,134.84152260003611,None,134.84152260003611,None,134.84152260003611,None,135.86478770000394,None,135.86478770000394,None,135.86478770000394,None,0.2,0.35,136.07384560001083,136.15780149999773,136.07384560001083,136.15780149999773,136.07384560001083,136.15780149999773,space,0.3029940000269562,136.07384560001083,None,136.39476649998687,None,3,001,2020_Apr_15_1924,experiment,2020.1.3,59.98418815933137,
images/light_grey_box,images/light_grey_box,images/light_grey_box,images/light_grey_box,images/light_grey_box_with_target,images/light_grey_box,0,0.05,0.2,0,27,27,35,,,,,,,,,,,,,136.90952360001393,None,136.90952360001393,None,136.90952360001393,None,137.91924820002168,None,137.91924820002168,None,137.91924820002168,None,0.05,0.2,138.17369080003118,138.32384640001692,138.17369080003118,138.32384640001692,138.17369080003118,138.32384640001692,space,0.23604119999799877,138.17369080003118,None,138.44022660003975,None,3,001,2020_Apr_15_1924,experiment,2020.1.3,59.98418815933137,
images/light_grey_box,images/light_grey_box,images/light_grey_box_with_cue,images/light_grey_box,images/light_grey_box_with_target,images/light_grey_box,0,0.1,0.25,0,28,28,52,,,,,,,,,,,,,138.94218569999794,None,138.94218569999794,None,138.94218569999794,None,139.9817452999996,None,139.9817452999996,None,139.9817452999996,None,0.3,0.44999999999999996,140.15627909998875,140.30643090000376,140.15627909998875,140.30643090000376,140.15627909998875,140.30643090000376,space,0.2383168000378646,140.15627909998875,None,140.42470790003426,None,3,001,2020_Apr_15_1924,experiment,2020.1.3,59.98418815933137,
images/light_grey_box,images/light_grey_box,images/light_grey_box,images/light_grey_box,images/light_grey_box_with_target,images/light_grey_box,0,0.5,0.65,0,29,29,115,,,,,,,,,,,,,140.92549220001092,None,140.92549220001092,None,140.92549220001092,None,141.9597955000354,None,141.9597955000354,None,141.9597955000354,None,0.3,0.44999999999999996,142.10758740000892,142.33915720001096,142.10758740000892,142.33915720001096,142.10758740000892,142.33915720001096,space,0.29988579999189824,142.10758740000892,None,142.42348699999275,None,3,001,2020_Apr_15_1924,experiment,2020.1.3,59.98418815933137,
images/light_grey_box,images/light_grey_box,images/light_grey_box,images/light_grey_box,images/light_grey_box_with_target,images/light_grey_box,0,0.1,0.25,0,30,30,54,,,,,,,,,,,,,142.9246162000345,None,142.9246162000345,None,142.9246162000345,None,143.95374560001073,None,143.95374560001073,None,143.95374560001073,None,0.1,0.25,144.22212880000006,144.35539560002508,144.22212880000006,144.35539560002508,144.22212880000006,144.35539560002508,space,0.2835382000193931,144.22212880000006,None,144.5233956000302,None,3,001,2020_Apr_15_1924,experiment,2020.1.3,59.98418815933137,
images/light_grey_box,images/light_grey_box,images/light_grey_box,images/light_grey_box,images/light_grey_box_with_target,images/light_grey_box,0,0.5,0.65,0,31,31,116,,,,,,,,,,,,,145.03883000003407,None,145.03883000003407,None,145.03883000003407,None,146.04798169998685,None,146.04798169998685,None,146.04798169998685,None,0.5,0.65,146.23847859998932,146.47162359999493,146.23847859998932,146.47162359999493,146.23847859998932,146.47162359999493,space,0.2682090000016615,146.23847859998932,None,146.5225607000175,None,3,001,2020_Apr_15_1924,experiment,2020.1.3,59.98418815933137,
images/light_grey_box_with_cue,images/light_grey_box,images/light_grey_box,images/light_grey_box,images/light_grey_box_with_target,images/light_grey_box,0,0.05,0.2,0,32,32,21,,,,,,,,,,,,,147.02471450000303,None,147.02471450000303,None,147.02471450000303,None,148.069438000035,None,148.069438000035,None,148.069438000035,None,0.05,0.2,148.2212542000343,148.33846589998575,148.2212542000343,148.33846589998575,148.2212542000343,148.33846589998575,space,0.24531129997922108,148.2212542000343,None,148.48998330003815,None,3,001,2020_Apr_15_1924,experiment,2020.1.3,59.98418815933137,
images/light_grey_box_with_cue,images/light_grey_box,images/light_grey_box,images/light_grey_box,images/light_grey_box_with_target,images/light_grey_box,0,0.05,0.2,0,33,33,22,,,,,,,,,,,,,149.0047642000136,None,149.0047642000136,None,149.0047642000136,None,150.02215020003496,None,150.02215020003496,None,150.02215020003496,None,0.1,0.25,150.20426620001672,150.33773939998355,150.20426620001672,150.33773939998355,150.20426620001672,150.33773939998355,space,0.18378120003035292,150.20426620001672,None,150.40641460003098,None,3,001,2020_Apr_15_1924,experiment,2020.1.3,59.98418815933137,
images/light_grey_box_with_cue,images/light_grey_box,images/light_grey_box,images/light_grey_box,images/light_grey_box_with_target,images/light_grey_box,0,0.5,0.65,0,34,34,101,,,,,,,,,,,,,150.921196100011,None,150.921196100011,None,150.921196100011,None,151.93927780003287,None,151.93927780003287,None,151.93927780003287,None,0.0,0.15,152.0891876000096,152.25404090003576,152.0891876000096,152.25404090003576,152.0891876000096,152.25404090003576,space,0.24115610000444576,152.0891876000096,None,152.35698779998347,None,3,001,2020_Apr_15_1924,experiment,2020.1.3,59.98418815933137,
images/light_grey_box_with_cue,images/light_grey_box,images/light_grey_box,images/light_grey_box_with_target,images/light_grey_box,images/light_grey_box,0,0.5,0.65,0,35,35,106,,,,,,,,,,,,,152.8708393999841,None,152.8708393999841,None,152.8708393999841,None,153.8831317999866,None,153.8831317999866,None,153.8831317999866,None,0.05,0.2,154.07025650003925,154.20373000000836,154.07025650003925,154.20373000000836,154.07025650003925,154.20373000000836,space,0.23347819998161867,154.07025650003925,None,154.32229740003822,None,3,001,2020_Apr_15_1924,experiment,2020.1.3,59.98418815933137,
images/light_grey_box_with_cue,images/light_grey_box,images/light_grey_box,images/light_grey_box,images/light_grey_box_with_target,images/light_grey_box,0,0.2,0.35,0,36,36,60,,,,,,,,,,,,,154.83705969998846,None,154.83705969998846,None,154.83705969998846,None,155.85841660003643,None,155.85841660003643,None,155.85841660003643,None,0.5,0.65,156.0697441000375,156.21998170000734,156.0697441000375,156.21998170000734,156.0697441000375,156.21998170000734,space,0.17004420002922416,156.0697441000375,None,156.27002170000924,None,3,001,2020_Apr_15_1924,experiment,2020.1.3,59.98418815933137,
images/light_grey_box_with_cue,images/light_grey_box,images/light_grey_box,images/light_grey_box_with_target,images/light_grey_box,images/light_grey_box,0,0.1,0.25,0,37,37,46,,,,,,,,,,,,,156.76985730003798,None,156.76985730003798,None,156.76985730003798,None,157.78409149998333,None,157.78409149998333,None,157.78409149998333,None,0.0,0.15,157.98614320001798,158.13585080002667,157.98614320001798,158.13585080002667,157.98614320001798,158.13585080002667,space,0.21570729999803007,157.98614320001798,None,158.21989960002247,None,3,001,2020_Apr_15_1924,experiment,2020.1.3,59.98418815933137,
images/light_grey_box,images/light_grey_box,images/light_grey_box_with_cue,images/light_grey_box,images/light_grey_box_with_target,images/light_grey_box,0,0.3,0.45,0,38,38,90,,,,,,,,,,,,,158.72107379999943,None,158.72107379999943,None,158.72107379999943,None,159.74737890000688,None,159.74737890000688,None,159.74737890000688,None,0.05,0.2,159.96929989999626,160.11905179999303,159.96929989999626,160.11905179999303,159.96929989999626,160.11905179999303,space,0.15466970001580194,159.96929989999626,None,160.15291619999334,None,3,001,2020_Apr_15_1924,experiment,2020.1.3,59.98418815933137,
images/light_grey_box,images/light_grey_box,images/light_grey_box_with_cue,images/light_grey_box,images/light_grey_box_with_target,images/light_grey_box,0,0.0,0.15,0,39,39,12,,,,,,,,,,,,,160.65330290002748,None,160.65330290002748,None,160.65330290002748,None,161.66775000002235,None,161.66775000002235,None,161.66775000002235,None,0.0,0.15,161.91862700000638,162.06841459998395,161.91862700000638,162.06841459998395,161.91862700000638,162.06841459998395,space,0.23819790000561625,161.91862700000638,None,162.18564590002643,None,3,001,2020_Apr_15_1924,experiment,2020.1.3,59.98418815933137,
images/light_grey_box,images/light_grey_box,images/light_grey_box_with_cue,images/light_grey_box_with_target,images/light_grey_box,images/light_grey_box,0,0.0,0.15,0,40,40,16,,,,,,,,,,,,,162.68509079999058,None,162.68509079999058,None,162.68509079999058,None,163.6984456999926,None,163.6984456999926,None,163.6984456999926,None,0.05,0.2,163.86904640001012,164.0514410000178,163.86904640001012,164.0514410000178,163.86904640001012,164.0514410000178,space,0.3437209000112489,163.86904640001012,None,164.2363526999834,None,3,001,2020_Apr_15_1924,experiment,2020.1.3,59.98418815933137,
images/light_grey_box,images/light_grey_box,images/light_grey_box,images/light_grey_box,images/light_grey_box_with_target,images/light_grey_box,0,0.1,0.25,0,41,41,55,,,,,,,,,,,,,164.75138229998993,None,164.75138229998993,None,164.75138229998993,None,165.76017930003582,None,165.76017930003582,None,165.76017930003582,None,0.3,0.44999999999999996,165.9510816000402,166.1675949000055,165.9510816000402,166.1675949000055,165.9510816000402,166.1675949000055,space,0.3230191999464296,165.9510816000402,None,166.30176460003713,None,3,001,2020_Apr_15_1924,experiment,2020.1.3,59.98418815933137,
images/light_grey_box,images/light_grey_box,images/light_grey_box_with_cue,images/light_grey_box,images/light_grey_box_with_target,images/light_grey_box,0,0.0,0.15,0,42,42,10,,,,,,,,,,,,,166.801011500007,None,166.801011500007,None,166.801011500007,None,167.81487539998489,None,167.81487539998489,None,167.81487539998489,None,0.05,0.2,168.01739009999437,168.20083290000912,168.01739009999437,168.20083290000912,168.01739009999437,168.20083290000912,space,0.19460510002681985,168.01739009999437,None,168.2346588000073,None,3,001,2020_Apr_15_1924,experiment,2020.1.3,59.98418815933137,
images/light_grey_box,images/light_grey_box,images/light_grey_box_with_cue,images/light_grey_box,images/light_grey_box_with_target,images/light_grey_box,0,0.0,0.15,0,43,43,13,,,,,,,,,,,,,168.73387990001356,None,168.73387990001356,None,168.73387990001356,None,169.74739159998717,None,169.74739159998717,None,169.74739159998717,None,0.0,0.15,169.9136787999887,170.11776079999981,169.9136787999887,170.11776079999981,169.9136787999887,170.11776079999981,space,0.24917240004288033,169.9136787999887,None,170.1868436000077,None,3,001,2020_Apr_15_1924,experiment,2020.1.3,59.98418815933137,
images/light_grey_box_with_cue,images/light_grey_box,images/light_grey_box,images/light_grey_box,images/light_grey_box,images/light_grey_box,0,0.0,0.15,0,44,44,8,,,,,,,,,,,,,170.70086510002147,None,170.70086510002147,None,170.70086510002147,None,171.7148266999866,None,171.7148266999866,None,171.7148266999866,None,0.1,0.25,171.91730860003736,None,171.91730860003736,None,171.91730860003736,None,space,0.16705410002032295,171.91730860003736,None,172.10071790002985,None,3,001,2020_Apr_15_1924,experiment,2020.1.3,59.98418815933137,
images/light_grey_box,images/light_grey_box,images/light_grey_box_with_cue,images/light_grey_box,images/light_grey_box,images/light_grey_box,0,0.05,0.2,0,45,45,38,,,,,,,,,,,,,172.60006440000143,None,172.60006440000143,None,172.60006440000143,None,173.61728599999333,None,173.61728599999333,None,173.61728599999333,None,0.05,0.2,173.81614270003047,173.96617919998243,173.81614270003047,173.96617919998243,173.81614270003047,173.96617919998243,space,0.2643804000108503,173.81614270003047,None,174.10046650003642,None,3,001,2020_Apr_15_1924,experiment,2020.1.3,59.98418815933137,
images/light_grey_box,images/light_grey_box,images/light_grey_box_with_cue,images/light_grey_box,images/light_grey_box_with_target,images/light_grey_box,0,0.2,0.35,0,46,46,70,,,,,,,,,,,,,174.61667230003513,None,174.61667230003513,None,174.61667230003513,None,175.63133090001065,None,175.63133090001065,None,175.63133090001065,None,0.3,0.44999999999999996,175.89983529999154,175.98250159999589,175.89983529999154,175.98250159999589,175.89983529999154,175.98250159999589,space,0.3267318000434898,175.89983529999154,None,176.2506247999845,None,3,001,2020_Apr_15_1924,experiment,2020.1.3,59.98418815933137,
images/light_grey_box,images/light_grey_box,images/light_grey_box_with_cue,images/light_grey_box,images/light_grey_box_with_target,images/light_grey_box,0,0.3,0.45,0,47,47,91,,,,,,,,,,,,,176.76558040000964,None,176.76558040000964,None,176.76558040000964,None,177.77802740002517,None,177.77802740002517,None,177.77802740002517,None,0.0,0.15,177.9987756999908,178.14866280002752,177.9987756999908,178.14866280002752,177.9987756999908,178.14866280002752,space,0.27772530005313456,177.9987756999908,None,178.300144799985,None,3,001,2020_Apr_15_1924,experiment,2020.1.3,59.98418815933137,
images/light_grey_box_with_cue,images/light_grey_box,images/light_grey_box,images/light_grey_box,images/light_grey_box_with_target,images/light_grey_box,0,0.2,0.35,0,48,48,61,,,,,,,,,,,,,178.81524790002732,None,178.81524790002732,None,178.81524790002732,None,179.8273358999868,None,179.8273358999868,None,179.8273358999868,None,0.3,0.44999999999999996,180.11499510001158,180.21483940002508,180.11499510001158,180.21483940002508,180.11499510001158,180.21483940002508,space,1.428749400016386,180.11499510001158,None,181.5652190000401,None,3,001,2020_Apr_15_1924,experiment,2020.1.3,59.98418815933137,
images/light_grey_box,images/light_grey_box,images/light_grey_box_with_cue,images/light_grey_box,images/light_grey_box_with_target,images/light_grey_box,0,0.05,0.2,0,49,49,30,,,,,,,,,,,,,182.06456740002614,None,182.06456740002614,None,182.06456740002614,None,183.08793809998315,None,183.08793809998315,None,183.08793809998315,None,0.0,0.15,183.28105709998636,183.4655273000244,183.28105709998636,183.4655273000244,183.28105709998636,183.4655273000244,space,0.23130629997467622,183.28105709998636,None,183.53451710002264,None,3,001,2020_Apr_15_1924,experiment,2020.1.3,59.98418815933137,
images/light_grey_box_with_cue,images/light_grey_box,images/light_grey_box,images/light_grey_box,images/light_grey_box_with_target,images/light_grey_box,0,0.5,0.65,0,50,50,104,,,,,,,,,,,,,184.0375944999978,None,184.0375944999978,None,184.0375944999978,None,185.0610456999857,None,185.0610456999857,None,185.0610456999857,None,0.05,0.2,185.210631199996,185.41379100002814,185.210631199996,185.41379100002814,185.210631199996,185.41379100002814,space,0.28397660003975034,185.210631199996,None,185.5148540000082,None,3,001,2020_Apr_15_1924,experiment,2020.1.3,59.98418815933137,
images/light_grey_box_with_cue,images/light_grey_box,images/light_grey_box,images/light_grey_box,images/light_grey_box_with_target,images/light_grey_box,0,0.1,0.25,0,51,51,43,,,,,,,,,,,,,186.0307155000046,None,186.0307155000046,None,186.0307155000046,None,187.04282400000375,None,187.04282400000375,None,187.04282400000375,None,0.1,0.25,187.24687740002992,187.34676450002007,187.24687740002992,187.34676450002007,187.24687740002992,187.34676450002007,space,0.18016679998254403,187.24687740002992,None,187.4487289999961,None,3,001,2020_Apr_15_1924,experiment,2020.1.3,59.98418815933137,
images/light_grey_box,images/light_grey_box,images/light_grey_box_with_cue,images/light_grey_box,images/light_grey_box_with_target,images/light_grey_box,0,0.0,0.15,0,52,52,14,,,,,,,,,,,,,187.96354299999075,None,187.96354299999075,None,187.96354299999075,None,188.9757270999835,None,188.9757270999835,None,188.9757270999835,None,0.1,0.25,189.1797297000303,189.26301200001035,189.1797297000303,189.26301200001035,189.1797297000303,189.26301200001035,space,0.2532457999768667,189.1797297000303,None,189.46400760003598,None,3,001,2020_Apr_15_1924,experiment,2020.1.3,59.98418815933137,
images/light_grey_box_with_cue,images/light_grey_box,images/light_grey_box,images/light_grey_box,images/light_grey_box_with_target,images/light_grey_box,0,0.3,0.45,0,53,53,82,,,,,,,,,,,,,189.96308499999577,None,189.96308499999577,None,189.96308499999577,None,190.97767590003787,None,190.97767590003787,None,190.97767590003787,None,0.3,0.44999999999999996,191.1422384000034,191.3126925000106,191.1422384000034,191.3126925000106,191.1422384000034,191.3126925000106,space,0.22750510001787916,191.1422384000034,None,191.39735510002356,None,3,001,2020_Apr_15_1924,experiment,2020.1.3,59.98418815933137,
images/light_grey_box_with_cue,images/light_grey_box,images/light_grey_box,images/light_grey_box_with_target,images/light_grey_box,images/light_grey_box,0,0.3,0.45,0,54,54,86,,,,,,,,,,,,,191.91259930003434,None,191.91259930003434,None,191.91259930003434,None,192.92433050001273,None,192.92433050001273,None,192.92433050001273,None,0.1,0.25,193.11232880002353,193.22891619999427,193.11232880002353,193.22891619999427,193.11232880002353,193.22891619999427,space,0.21926729998085648,193.11232880002353,None,193.36310680001043,None,3,001,2020_Apr_15_1924,experiment,2020.1.3,59.98418815933137,
images/light_grey_box_with_cue,images/light_grey_box,images/light_grey_box,images/light_grey_box,images/light_grey_box_with_target,images/light_grey_box,0,0.5,0.65,0,55,55,103,,,,,,,,,,,,,193.86217849998502,None,193.86217849998502,None,193.86217849998502,None,194.89438010001322,None,194.89438010001322,None,194.89438010001322,None,0.3,0.44999999999999996,195.0658478999976,195.1962778000161,195.0658478999976,195.1962778000161,195.0658478999976,195.1962778000161,space,0.3239070000126958,195.0658478999976,None,195.4161295000231,None,3,001,2020_Apr_15_1924,experiment,2020.1.3,59.98418815933137,
images/light_grey_box,images/light_grey_box,images/light_grey_box,images/light_grey_box,images/light_grey_box_with_target,images/light_grey_box,0,0.05,0.2,0,56,56,34,,,,,,,,,,,,,195.92846050002845,None,195.92846050002845,None,195.92846050002845,None,196.9367694000248,None,196.9367694000248,None,196.9367694000248,None,0.2,0.35,197.09198930003913,197.27876230003312,197.09198930003913,197.27876230003312,197.09198930003913,197.27876230003312,space,0.24510330002522096,197.09198930003913,None,197.36508990003495,None,3,001,2020_Apr_15_1924,experiment,2020.1.3,59.98418815933137,
images/light_grey_box_with_cue,images/light_grey_box,images/light_grey_box,images/light_grey_box,images/light_grey_box_with_target,images/light_grey_box,0,0.5,0.65,0,57,57,102,,,,,,,,,,,,,197.87830039998516,None,197.87830039998516,None,197.87830039998516,None,198.8899836000055,None,198.8899836000055,None,198.8899836000055,None,0.2,0.35,199.06129700003657,199.22832019999623,199.06129700003657,199.22832019999623,199.06129700003657,199.22832019999623,space,0.22890440002083778,199.06129700003657,None,199.3131105999928,None,3,001,2020_Apr_15_1924,experiment,2020.1.3,59.98418815933137,
images/light_grey_box_with_cue,images/light_grey_box,images/light_grey_box,images/light_grey_box,images/light_grey_box,images/light_grey_box,0,0.3,0.45,0,58,58,88,,,,,,,,,,,,,199.82807340001455,None,199.82807340001455,None,199.82807340001455,None,200.84013050002977,None,200.84013050002977,None,200.84013050002977,None,0.5,0.65,201.0275994000258,201.1939582999912,201.0275994000258,201.1939582999912,201.0275994000258,201.1939582999912,space,0.17888510000193492,201.0275994000258,None,201.2281697000144,None,3,001,2020_Apr_15_1924,experiment,2020.1.3,59.98418815933137,
images/light_grey_box,images/light_grey_box,images/light_grey_box_with_cue,images/light_grey_box,images/light_grey_box,images/light_grey_box,0,0.1,0.25,0,59,59,58,,,,,,,,,,,,,201.74387549998937,None,201.74387549998937,None,201.74387549998937,None,202.75532990001375,None,202.75532990001375,None,202.75532990001375,None,0.2,0.35,202.99413669999922,203.12682649999624,202.99413669999922,203.12682649999624,202.99413669999922,203.12682649999624,space,2.0343041999731213,202.99413669999922,None,205.06073640001705,None,3,001,2020_Apr_15_1924,experiment,2020.1.3,59.98418815933137,
images/light_grey_box,images/light_grey_box,images/light_grey_box,images/light_grey_box,images/light_grey_box_with_target,images/light_grey_box,0,0.2,0.35,0,60,60,74,,,,,,,,,,,,,205.57656320004025,None,205.57656320004025,None,205.57656320004025,None,206.60067539999727,None,206.60067539999727,None,206.60067539999727,None,0.5,0.65,206.79297180002322,None,206.79297180002322,None,206.79297180002322,None,space,0.1996553000062704,206.79297180002322,None,207.01564450003207,None,3,001,2020_Apr_15_1924,experiment,2020.1.3,59.98418815933137,
images/light_grey_box_with_cue,images/light_grey_box,images/light_grey_box,images/light_grey_box,images/light_grey_box_with_target,images/light_grey_box,0,0.1,0.25,0,61,61,44,,,,,,,,,,,,,207.52780939999502,None,207.52780939999502,None,207.52780939999502,None,208.5528142999974,None,208.5528142999974,None,208.5528142999974,None,0.3,0.44999999999999996,208.77590070001315,208.9256974000018,208.77590070001315,208.9256974000018,208.77590070001315,208.9256974000018,space,0.23778199998196214,208.77590070001315,None,209.04370839998592,None,3,001,2020_Apr_15_1924,experiment,2020.1.3,59.98418815933137,
images/light_grey_box,images/light_grey_box,images/light_grey_box_with_cue,images/light_grey_box,images/light_grey_box,images/light_grey_box,0,0.5,0.65,0,62,62,119,,,,,,,,,,,,,209.55899340001633,None,209.55899340001633,None,209.55899340001633,None,210.57205160002923,None,210.57205160002923,None,210.57205160002923,None,0.3,0.44999999999999996,210.72127600002568,210.97527990001254,210.72127600002568,210.97527990001254,210.72127600002568,210.97527990001254,space,2.0795918999938294,210.72127600002568,None,212.8260040000314,None,3,001,2020_Apr_15_1924,experiment,2020.1.3,59.98418815933137,
images/light_grey_box,images/light_grey_box,images/light_grey_box_with_cue,images/light_grey_box,images/light_grey_box,images/light_grey_box,0,0.3,0.45,0,63,63,98,,,,,,,,,,,,,213.32578439998906,None,213.32578439998906,None,213.32578439998906,None,214.3569937000284,None,214.3569937000284,None,214.3569937000284,None,0.05,0.2,214.57486260001315,214.70879529998638,214.57486260001315,214.70879529998638,214.57486260001315,214.70879529998638,space,0.8797717000124976,214.57486260001315,None,215.4761061000172,None,3,001,2020_Apr_15_1924,experiment,2020.1.3,59.98418815933137,
images/light_grey_box_with_cue,images/light_grey_box,images/light_grey_box,images/light_grey_box,images/light_grey_box,images/light_grey_box,0,0.05,0.2,0,64,64,28,,,,,,,,,,,,,215.99140009999974,None,215.99140009999974,None,215.99140009999974,None,217.00322340003913,None,217.00322340003913,None,217.00322340003913,None,0.2,0.35,217.22415010002442,217.39066229999298,217.22415010002442,217.39066229999298,217.22415010002442,217.39066229999298,space,0.7557205999619327,217.22415010002442,None,218.00822920002975,None,3,001,2020_Apr_15_1924,experiment,2020.1.3,59.98418815933137,
images/light_grey_box_with_cue,images/light_grey_box,images/light_grey_box,images/light_grey_box,images/light_grey_box,images/light_grey_box,0,0.0,0.15,0,65,65,9,,,,,,,,,,,,,218.5073984999908,None,218.5073984999908,None,218.5073984999908,None,219.52570280001964,None,219.52570280001964,None,219.52570280001964,None,0.3,0.44999999999999996,219.82510730001377,219.92389430000912,219.82510730001377,219.92389430000912,219.82510730001377,219.92389430000912,space,0.3186403000145219,219.82510730001377,None,220.17575450002914,None,3,001,2020_Apr_15_1924,experiment,2020.1.3,59.98418815933137,
images/light_grey_box_with_cue,images/light_grey_box,images/light_grey_box,images/light_grey_box,images/light_grey_box,images/light_grey_box_with_target,0,0.2,0.35,0,66,66,67,,,,,,,,,,,,,220.69129099999554,None,220.69129099999554,None,220.69129099999554,None,221.70759210002143,None,221.70759210002143,None,221.70759210002143,None,0.3,0.44999999999999996,221.90656090003904,222.0065592000028,221.90656090003904,222.0065592000028,221.90656090003904,222.0065592000028,space,2.566836299956776,221.90656090003904,None,224.48999909998383,None,3,001,2020_Apr_15_1924,experiment,2020.1.3,59.98418815933137,
images/light_grey_box_with_cue,images/light_grey_box,images/light_grey_box,images/light_grey_box,images/light_grey_box_with_target,images/light_grey_box,0,0.2,0.35,0,67,67,63,,,,,,,,,,,,,224.989271700033,None,224.989271700033,None,224.989271700033,None,226.0056184999994,None,226.0056184999994,None,226.0056184999994,None,0.2,0.35,226.25577440002235,226.38895059999777,226.25577440002235,226.38895059999777,226.25577440002235,226.38895059999777,space,0.3303825999610126,226.25577440002235,None,226.60711410001386,None,3,001,2020_Apr_15_1924,experiment,2020.1.3,59.98418815933137,
images/light_grey_box_with_cue,images/light_grey_box,images/light_grey_box,images/light_grey_box,images/light_grey_box,images/light_grey_box_with_target,0,0.0,0.15,0,68,68,7,,,,,,,,,,,,,227.1222358000232,None,227.1222358000232,None,227.1222358000232,None,228.13505209999857,None,228.13505209999857,None,228.13505209999857,None,0.2,0.35,228.35529999999562,228.45517520001158,228.35529999999562,228.45517520001158,228.35529999999562,228.45517520001158,space,0.30935380002483726,228.35529999999562,None,228.68984170001931,None,3,001,2020_Apr_15_1924,experiment,2020.1.3,59.98418815933137,
images/light_grey_box,images/light_grey_box,images/light_grey_box,images/light_grey_box,images/light_grey_box_with_target,images/light_grey_box,0,0.5,0.65,0,69,69,114,,,,,,,,,,,,,229.20510750001995,None,229.20510750001995,None,229.20510750001995,None,230.2334942999878,None,230.2334942999878,None,230.2334942999878,None,0.3,0.44999999999999996,230.40483820001828,230.55579160002526,230.40483820001828,230.55579160002526,230.40483820001828,230.55579160002526,space,0.32349219999741763,230.40483820001828,None,230.75831589999143,None,3,001,2020_Apr_15_1924,experiment,2020.1.3,59.98418815933137,
images/light_grey_box,images/light_grey_box,images/light_grey_box_with_cue,images/light_grey_box,images/light_grey_box_with_target,images/light_grey_box,0,0.1,0.25,0,70,70,50,,,,,,,,,,,,,231.27347300003748,None,231.27347300003748,None,231.27347300003748,None,232.28871900000377,None,232.28871900000377,None,232.28871900000377,None,0.3,0.44999999999999996,232.53812690003542,232.65468310000142,232.53812690003542,232.65468310000142,232.53812690003542,232.65468310000142,space,0.26846029999433085,232.53812690003542,None,232.84105940000154,None,3,001,2020_Apr_15_1924,experiment,2020.1.3,59.98418815933137,
images/light_grey_box_with_cue,images/light_grey_box,images/light_grey_box,images/light_grey_box,images/light_grey_box_with_target,images/light_grey_box,0,0.5,0.65,0,71,71,105,,,,,,,,,,,,,233.35419819998788,None,233.35419819998788,None,233.35419819998788,None,234.3660988000338,None,234.3660988000338,None,234.3660988000338,None,0.2,0.35,234.53493590001017,234.67083449999336,234.53493590001017,234.67083449999336,234.53493590001017,234.67083449999336,space,0.2738748000119813,234.53493590001017,None,234.83863350003958,None,3,001,2020_Apr_15_1924,experiment,2020.1.3,59.98418815933137,
images/light_grey_box_with_cue,images/light_grey_box,images/light_grey_box,images/light_grey_box,images/light_grey_box,images/light_grey_box_with_target,0,0.3,0.45,0,72,72,87,,,,,,,,,,,,,235.35394520004047,None,235.35394520004047,None,235.35394520004047,None,236.36589760001516,None,236.36589760001516,None,236.36589760001516,None,0.3,0.44999999999999996,236.51884269999573,236.72025020001456,236.51884269999573,236.72025020001456,236.51884269999573,236.72025020001456,space,0.29717239999445155,236.51884269999573,None,236.83775390003575,None,3,001,2020_Apr_15_1924,experiment,2020.1.3,59.98418815933137,
images/light_grey_box,images/light_grey_box,images/light_grey_box_with_cue,images/light_grey_box,images/light_grey_box,images/light_grey_box,0,0.2,0.35,0,73,73,79,,,,,,,,,,,,,237.33681370003615,None,237.33681370003615,None,237.33681370003615,None,238.35192580003059,None,238.35192580003059,None,238.35192580003059,None,0.5,0.65,238.56992869998794,238.7197924000211,238.56992869998794,238.7197924000211,238.56992869998794,238.7197924000211,space,1.4123961000004783,238.56992869998794,None,240.00418450002326,None,3,001,2020_Apr_15_1924,experiment,2020.1.3,59.98418815933137,
images/light_grey_box_with_cue,images/light_grey_box,images/light_grey_box,images/light_grey_box,images/light_grey_box,images/light_grey_box,0,0.5,0.65,0,74,74,109,,,,,,,,,,,,,240.5196811000351,None,240.5196811000351,None,240.5196811000351,None,241.5320187000325,None,241.5320187000325,None,241.5320187000325,None,0.5,0.65,241.7003225000226,241.8691271999851,241.7003225000226,241.8691271999851,241.7003225000226,241.8691271999851,space,0.8100017000106163,241.7003225000226,None,242.53890680003678,None,3,001,2020_Apr_15_1924,experiment,2020.1.3,59.98418815933137,
images/light_grey_box_with_cue,images/light_grey_box,images/light_grey_box,images/light_grey_box,images/light_grey_box_with_target,images/light_grey_box,0,0.0,0.15,0,75,75,4,,,,,,,,,,,,,243.05241390003357,None,243.05241390003357,None,243.05241390003357,None,244.06445090001216,None,244.06445090001216,None,244.06445090001216,None,0.5,0.65,244.28632870002184,244.3862822999945,244.28632870002184,244.3862822999945,244.28632870002184,244.3862822999945,space,0.31287719996180385,244.28632870002184,None,244.62219259998528,None,3,001,2020_Apr_15_1924,experiment,2020.1.3,59.98418815933137,
images/light_grey_box_with_cue,images/light_grey_box,images/light_grey_box,images/light_grey_box,images/light_grey_box_with_target,images/light_grey_box,0,0.05,0.2,0,76,76,23,,,,,,,,,,,,,245.1367444000207,None,245.1367444000207,None,245.1367444000207,None,246.14777909999248,None,246.14777909999248,None,246.14777909999248,None,0.0,0.15,246.33496410003863,246.46851109998534,246.33496410003863,246.46851109998534,246.33496410003863,246.46851109998534,space,0.25131730001885444,246.33496410003863,None,246.60324379999656,None,3,001,2020_Apr_15_1924,experiment,2020.1.3,59.98418815933137,
images/light_grey_box,images/light_grey_box,images/light_grey_box_with_cue,images/light_grey_box,images/light_grey_box,images/light_grey_box_with_target,0,0.5,0.65,0,77,77,117,,,,,,,,,,,,,247.1181576999952,None,247.1181576999952,None,247.1181576999952,None,248.1305343999993,None,248.1305343999993,None,248.1305343999993,None,0.5,0.65,248.33457980002277,248.41781340003945,248.33457980002277,248.41781340003945,248.33457980002277,248.41781340003945,space,0.31686720001744106,248.33457980002277,None,248.66915949998656,None,3,001,2020_Apr_15_1924,experiment,2020.1.3,59.98418815933137,
images/light_grey_box,images/light_grey_box,images/light_grey_box,images/light_grey_box,images/light_grey_box_with_target,images/light_grey_box,0,0.5,0.65,0,78,78,113,,,,,,,,,,,,,249.17230340000242,None,249.17230340000242,None,249.17230340000242,None,250.19597130001057,None,250.19597130001057,None,250.19597130001057,None,0.05,0.2,250.36748539999826,250.5174360999954,250.36748539999826,250.5174360999954,250.36748539999826,250.5174360999954,space,0.2923670000163838,250.36748539999826,None,250.68551640002988,None,3,001,2020_Apr_15_1924,experiment,2020.1.3,59.98418815933137,
images/light_grey_box_with_cue,images/light_grey_box,images/light_grey_box,images/light_grey_box,images/light_grey_box_with_target,images/light_grey_box,0,0.05,0.2,0,79,79,20,,,,,,,,,,,,,251.2007181000081,None,251.2007181000081,None,251.2007181000081,None,252.21304960001726,None,252.21304960001726,None,252.21304960001726,None,0.1,0.25,252.40046430000803,252.55043150001438,252.40046430000803,252.55043150001438,252.40046430000803,252.55043150001438,space,0.22565730003407225,252.40046430000803,None,252.6512889000005,None,3,001,2020_Apr_15_1924,experiment,2020.1.3,59.98418815933137,
images/light_grey_box,images/light_grey_box,images/light_grey_box,images/light_grey_box,images/light_grey_box_with_target,images/light_grey_box,0,0.2,0.35,0,80,80,73,,,,,,,,,,,,,253.1675011999905,None,253.1675011999905,None,253.1675011999905,None,254.1873377999873,None,254.1873377999873,None,254.1873377999873,None,0.1,0.25,254.34998020000057,254.55167770001572,254.34998020000057,254.55167770001572,254.34998020000057,254.55167770001572,space,0.30744120001327246,254.34998020000057,None,254.68792960001156,None,3,001,2020_Apr_15_1924,experiment,2020.1.3,59.98418815933137,
images/light_grey_box,images/light_grey_box,images/light_grey_box_with_cue,images/light_grey_box,images/light_grey_box,images/light_grey_box,0,0.3,0.45,0,81,81,99,,,,,,,,,,,,,255.20070610003313,None,255.20070610003313,None,255.20070610003313,None,256.2187673000153,None,256.2187673000153,None,256.2187673000153,None,0.1,0.25,256.4329569999827,256.61616700002924,256.4329569999827,256.61616700002924,256.4329569999827,256.61616700002924,space,0.9081866000196896,256.4329569999827,None,257.3672131000203,None,3,001,2020_Apr_15_1924,experiment,2020.1.3,59.98418815933137,
images/light_grey_box,images/light_grey_box,images/light_grey_box,images/light_grey_box,images/light_grey_box_with_target,images/light_grey_box,0,0.1,0.25,0,82,82,56,,,,,,,,,,,,,257.88264830003027,None,257.88264830003027,None,257.88264830003027,None,258.89215760002844,None,258.89215760002844,None,258.89215760002844,None,0.05,0.2,259.13244990003295,259.2823195999954,259.13244990003295,259.2823195999954,259.13244990003295,259.2823195999954,space,0.45756169996457174,259.13244990003295,None,259.61644090001937,None,3,001,2020_Apr_15_1924,experiment,2020.1.3,59.98418815933137,
images/light_grey_box_with_cue,images/light_grey_box,images/light_grey_box,images/light_grey_box,images/light_grey_box_with_target,images/light_grey_box,0,0.0,0.15,0,83,83,3,,,,,,,,,,,,,260.1158725999994,None,260.1158725999994,None,260.1158725999994,None,261.12879980000434,None,261.12879980000434,None,261.12879980000434,None,0.5,0.65,261.3319446000387,261.4652097999933,261.3319446000387,261.4652097999933,261.3319446000387,261.4652097999933,space,0.3976066000177525,261.3319446000387,None,261.75033310003346,None,3,001,2020_Apr_15_1924,experiment,2020.1.3,59.98418815933137,
images/light_grey_box_with_cue,images/light_grey_box,images/light_grey_box,images/light_grey_box,images/light_grey_box,images/light_grey_box,0,0.05,0.2,0,84,84,29,,,,,,,,,,,,,262.2651593000046,None,262.2651593000046,None,262.2651593000046,None,263.2777500000084,None,263.2777500000084,None,263.2777500000084,None,0.0,0.15,263.51501139998436,263.5813944999827,263.51501139998436,263.5813944999827,263.51501139998436,263.5813944999827,space,3.852276699966751,263.51501139998436,None,267.400736599986,None,3,001,2020_Apr_15_1924,experiment,2020.1.3,59.98418815933137,
images/light_grey_box,images/light_grey_box,images/light_grey_box_with_cue,images/light_grey_box,images/light_grey_box_with_target,images/light_grey_box,0,0.5,0.65,0,85,85,111,,,,,,,,,,,,,267.9148928000359,None,267.9148928000359,None,267.9148928000359,None,268.93469680001726,None,268.93469680001726,None,268.93469680001726,None,0.5,0.65,269.09915880003246,269.26420010003494,269.09915880003246,269.26420010003494,269.09915880003246,269.26420010003494,space,0.2709639999666251,269.09915880003246,None,269.40047170000616,None,3,001,2020_Apr_15_1924,experiment,2020.1.3,59.98418815933137,
images/light_grey_box,images/light_grey_box,images/light_grey_box_with_cue,images/light_grey_box,images/light_grey_box_with_target,images/light_grey_box,0,0.05,0.2,0,86,86,32,,,,,,,,,,,,,269.9136131000123,None,269.9136131000123,None,269.9136131000123,None,270.9262378999847,None,270.9262378999847,None,270.9262378999847,None,0.0,0.15,271.09659640002064,271.21376060001785,271.09659640002064,271.21376060001785,271.09659640002064,271.21376060001785,space,0.2862332999939099,271.09659640002064,None,271.4142128000385,None,3,001,2020_Apr_15_1924,experiment,2020.1.3,59.98418815933137,
images/light_grey_box,images/light_grey_box,images/light_grey_box_with_cue,images/light_grey_box,images/light_grey_box,images/light_grey_box,0,0.05,0.2,0,87,87,39,,,,,,,,,,,,,271.93017430003965,None,271.93017430003965,None,271.93017430003965,None,272.9434830000391,None,272.9434830000391,None,272.9434830000391,None,0.5,0.65,273.12990120000904,273.246301200008,273.12990120000904,273.246301200008,273.12990120000904,273.246301200008,space,3.529887199983932,273.12990120000904,None,276.67975230002776,None,3,001,2020_Apr_15_1924,experiment,2020.1.3,59.98418815933137,
images/light_grey_box_with_cue,images/light_grey_box,images/light_grey_box,images/light_grey_box,images/light_grey_box_with_target,images/light_grey_box,0,0.3,0.45,0,88,88,84,,,,,,,,,,,,,277.19546580000315,None,277.19546580000315,None,277.19546580000315,None,278.2177929999889,None,278.2177929999889,None,278.2177929999889,None,0.2,0.35,278.36908850003965,278.5961688000243,278.36908850003965,278.5961688000243,278.36908850003965,278.5961688000243,space,0.219307099992875,278.36908850003965,None,278.61480350000784,None,3,001,2020_Apr_15_1924,experiment,2020.1.3,59.98418815933137,
images/light_grey_box_with_cue,images/light_grey_box,images/light_grey_box,images/light_grey_box,images/light_grey_box_with_target,images/light_grey_box,0,0.1,0.25,0,89,89,45,,,,,,,,,,,,,279.115469100012,None,279.115469100012,None,279.115469100012,None,280.158840899996,None,280.158840899996,None,280.158840899996,None,0.05,0.2,280.39584180002566,280.4461241000099,280.39584180002566,280.4461241000099,280.39584180002566,280.4461241000099,space,0.1579366999794729,280.39584180002566,None,280.5816525000264,None,3,001,2020_Apr_15_1924,experiment,2020.1.3,59.98418815933137,
images/light_grey_box,images/light_grey_box,images/light_grey_box_with_cue,images/light_grey_box,images/light_grey_box,images/light_grey_box,0,0.2,0.35,0,90,90,78,,,,,,,,,,,,,281.09659020003164,None,281.09659020003164,None,281.09659020003164,None,282.1139700000058,None,282.1139700000058,None,282.1139700000058,None,0.0,0.15,282.2779540999909,282.42971840000246,282.2779540999909,282.42971840000246,282.2779540999909,282.42971840000246,space,0.7685119999805465,282.2779540999909,None,283.0657442000229,None,3,001,2020_Apr_15_1924,experiment,2020.1.3,59.98418815933137,
images/light_grey_box,images/light_grey_box,images/light_grey_box,images/light_grey_box,images/light_grey_box_with_target,images/light_grey_box,0,0.3,0.45,0,91,91,95,,,,,,,,,,,,,283.5795170000056,None,283.5795170000056,None,283.5795170000056,None,284.5869585000328,None,284.5869585000328,None,284.5869585000328,None,0.0,0.15,284.77763369999593,284.87714009999763,284.77763369999593,284.87714009999763,284.77763369999593,284.87714009999763,space,0.24166099994909018,284.77763369999593,None,285.04524020000827,None,3,001,2020_Apr_15_1924,experiment,2020.1.3,59.98418815933137,
images/light_grey_box,images/light_grey_box,images/light_grey_box,images/light_grey_box,images/light_grey_box_with_target,images/light_grey_box,0,0.2,0.35,0,92,92,76,,,,,,,,,,,,,285.5604229000164,None,285.5604229000164,None,285.5604229000164,None,286.5695632999996,None,286.5695632999996,None,286.5695632999996,None,0.0,0.15,286.8101865000208,286.9933802000014,286.8101865000208,286.9933802000014,286.8101865000208,286.9933802000014,space,0.2731214999803342,286.8101865000208,None,287.11066900001606,None,3,001,2020_Apr_15_1924,experiment,2020.1.3,59.98418815933137,
images/light_grey_box,images/light_grey_box,images/light_grey_box_with_cue,images/light_grey_box,images/light_grey_box_with_target,images/light_grey_box,0,0.5,0.65,0,93,93,112,,,,,,,,,,,,,287.6100337000098,None,287.6100337000098,None,287.6100337000098,None,288.6234425000148,None,288.6234425000148,None,288.6234425000148,None,0.3,0.44999999999999996,288.97638330003247,288.97638330003247,288.97638330003247,288.97638330003247,288.97638330003247,288.97638330003247,space,0.5450801000115462,288.97638330003247,None,289.5438062000321,None,3,001,2020_Apr_15_1924,experiment,2020.1.3,59.98418815933137,
images/light_grey_box_with_cue,images/light_grey_box,images/light_grey_box,images/light_grey_box,images/light_grey_box,images/light_grey_box,0,0.3,0.45,0,94,94,89,,,,,,,,,,,,,290.0595316999825,None,290.0595316999825,None,290.0595316999825,None,291.0746150999912,None,291.0746150999912,None,291.0746150999912,None,0.5,0.65,291.25929640000686,291.40913929999806,291.25929640000686,291.40913929999806,291.25929640000686,291.40913929999806,space,0.288360400008969,291.25929640000686,None,291.579055899987,None,3,001,2020_Apr_15_1924,experiment,2020.1.3,59.98418815933137,
images/light_grey_box_with_cue,images/light_grey_box,images/light_grey_box,images/light_grey_box,images/light_grey_box_with_target,images/light_grey_box,0,0.3,0.45,0,95,95,83,,,,,,,,,,,,,292.09477940003853,None,292.09477940003853,None,292.09477940003853,None,293.105094700004,None,293.105094700004,None,293.105094700004,None,0.05,0.2,293.3090004000114,None,293.3090004000114,None,293.3090004000114,None,space,0.166748900024686,293.3090004000114,None,293.49351930001285,None,3,001,2020_Apr_15_1924,experiment,2020.1.3,59.98418815933137,
images/light_grey_box,images/light_grey_box,images/light_grey_box_with_cue,images/light_grey_box,images/light_grey_box,images/light_grey_box_with_target,0,0.3,0.45,0,96,96,97,,,,,,,,,,,,,294.0088192000403,None,294.0088192000403,None,294.0088192000403,None,295.0217771999887,None,295.0217771999887,None,295.0217771999887,None,0.0,0.15,295.1739878000226,295.3917274000123,295.1739878000226,295.3917274000123,295.1739878000226,295.3917274000123,space,0.380417300038971,295.1739878000226,None,295.57620820001466,None,3,001,2020_Apr_15_1924,experiment,2020.1.3,59.98418815933137,
images/light_grey_box_with_cue,images/light_grey_box,images/light_grey_box,images/light_grey_box,images/light_grey_box,images/light_grey_box_with_target,0,0.1,0.25,0,97,97,47,,,,,,,,,,,,,296.0917342000175,None,296.0917342000175,None,296.0917342000175,None,297.104757299996,None,297.104757299996,None,297.104757299996,None,0.3,0.44999999999999996,297.27478169999085,297.4580372000346,297.27478169999085,297.4580372000346,297.27478169999085,297.4580372000346,space,0.30364610004471615,297.27478169999085,None,297.6084663000074,None,3,001,2020_Apr_15_1924,experiment,2020.1.3,59.98418815933137,
images/light_grey_box,images/light_grey_box,images/light_grey_box_with_cue,images/light_grey_box,images/light_grey_box_with_target,images/light_grey_box,0,0.0,0.15,0,98,98,11,,,,,,,,,,,,,298.1079666999867,None,298.1079666999867,None,298.1079666999867,None,299.1230595000088,None,299.1230595000088,None,299.1230595000088,None,0.1,0.25,299.40765220002504,299.4910772999865,299.40765220002504,299.4910772999865,299.40765220002504,299.4910772999865,space,2.0005123000009917,299.40765220002504,None,301.4277277000365,None,3,001,2020_Apr_15_1924,experiment,2020.1.3,59.98418815933137,
images/light_grey_box_with_cue,images/light_grey_box,images/light_grey_box,images/light_grey_box,images/light_grey_box,images/light_grey_box,0,0.2,0.35,0,99,99,69,,,,,,,,,,,,,301.9415455000126,None,301.9415455000126,None,301.9415455000126,None,302.96368869999424,None,302.96368869999424,None,302.96368869999424,None,0.05,0.2,303.15791810001247,303.241379700019,303.15791810001247,303.241379700019,303.15791810001247,303.241379700019,space,0.2890764999901876,303.15791810001247,None,303.47652950003976,None,3,001,2020_Apr_15_1924,experiment,2020.1.3,59.98418815933137,
images/light_grey_box,images/light_grey_box,images/light_grey_box_with_cue,images/light_grey_box,images/light_grey_box_with_target,images/light_grey_box,0,0.5,0.65,0,100,100,110,,,,,,,,,,,,,303.99225720000686,None,303.99225720000686,None,303.99225720000686,None,305.00519789999817,None,305.00519789999817,None,305.00519789999817,None,0.5,0.65,305.22331050003413,305.3235551000107,305.22331050003413,305.3235551000107,305.22331050003413,305.3235551000107,space,0.3165253000333905,305.22331050003413,None,305.55827979999594,None,3,001,2020_Apr_15_1924,experiment,2020.1.3,59.98418815933137,
images/light_grey_box_with_cue,images/light_grey_box,images/light_grey_box,images/light_grey_box,images/light_grey_box,images/light_grey_box,0,0.1,0.25,0,101,101,49,,,,,,,,,,,,,306.0602090000175,None,306.0602090000175,None,306.0602090000175,None,307.0856927999994,None,307.0856927999994,None,307.0856927999994,None,0.5,0.65,307.2727179999929,307.4060030000401,307.2727179999929,307.4060030000401,307.2727179999929,307.4060030000401,space,0.7078785000485368,307.2727179999929,None,308.0068495000014,None,3,001,2020_Apr_15_1924,experiment,2020.1.3,59.98418815933137,
images/light_grey_box_with_cue,images/light_grey_box,images/light_grey_box,images/light_grey_box,images/light_grey_box_with_target,images/light_grey_box,0,0.1,0.25,0,102,102,41,,,,,,,,,,,,,308.52252230001613,None,308.52252230001613,None,308.52252230001613,None,309.5353327000048,None,309.5353327000048,None,309.5353327000048,None,0.5,0.65,309.72214820003137,309.8888492999831,309.72214820003137,309.8888492999831,309.72214820003137,309.8888492999831,space,0.3004529000027105,309.72214820003137,None,310.040020800021,None,3,001,2020_Apr_15_1924,experiment,2020.1.3,59.98418815933137,
images/light_grey_box,images/light_grey_box,images/light_grey_box,images/light_grey_box,images/light_grey_box_with_target,images/light_grey_box,0,0.3,0.45,0,103,103,94,,,,,,,,,,,,,310.5554678000044,None,310.5554678000044,None,310.5554678000044,None,311.56442970002536,None,311.56442970002536,None,311.56442970002536,None,0.5,0.65,311.7186013000319,311.8719776000362,311.7186013000319,311.8719776000362,311.7186013000319,311.8719776000362,space,0.3005674000014551,311.7186013000319,None,312.0404844000004,None,3,001,2020_Apr_15_1924,experiment,2020.1.3,59.98418815933137,
images/light_grey_box_with_cue,images/light_grey_box,images/light_grey_box,images/light_grey_box,images/light_grey_box_with_target,images/light_grey_box,0,0.05,0.2,0,104,104,24,,,,,,,,,,,,,312.55508810002357,None,312.55508810002357,None,312.55508810002357,None,313.5673816000344,None,313.5673816000344,None,313.5673816000344,None,0.2,0.35,313.8213509999914,313.8552791000111,313.8213509999914,313.8552791000111,313.8213509999914,313.8552791000111,space,0.14255380001850426,313.8213509999914,None,313.98869870003546,None,3,001,2020_Apr_15_1924,experiment,2020.1.3,59.98418815933137,
images/light_grey_box,images/light_grey_box,images/light_grey_box_with_cue,images/light_grey_box,images/light_grey_box,images/light_grey_box,0,0.1,0.25,0,105,105,59,,,,,,,,,,,,,314.49032889999216,None,314.49032889999216,None,314.49032889999216,None,315.5215993000311,None,315.5215993000311,None,315.5215993000311,None,0.3,0.44999999999999996,315.7565018000314,315.80731140001444,315.7565018000314,315.80731140001444,315.7565018000314,315.80731140001444,space,0.5768586000194773,315.7565018000314,None,316.35501280002063,None,3,001,2020_Apr_15_1924,experiment,2020.1.3,59.98418815933137,
images/light_grey_box_with_cue,images/light_grey_box,images/light_grey_box,images/light_grey_box,images/light_grey_box_with_target,images/light_grey_box,0,0.5,0.65,0,106,106,100,,,,,,,,,,,,,316.85463529999834,None,316.85463529999834,None,316.85463529999834,None,317.8691129999934,None,317.8691129999934,None,317.8691129999934,None,0.05,0.2,318.07065410004,318.20376649999525,318.07065410004,318.20376649999525,318.07065410004,318.20376649999525,space,0.36740909999934956,318.07065410004,None,318.4550784000312,None,3,001,2020_Apr_15_1924,experiment,2020.1.3,59.98418815933137,
images/light_grey_box,images/light_grey_box,images/light_grey_box,images/light_grey_box,images/light_grey_box_with_target,images/light_grey_box,0,0.2,0.35,0,107,107,75,,,,,,,,,,,,,318.97036820003996,None,318.97036820003996,None,318.97036820003996,None,319.979805400013,None,319.979805400013,None,319.979805400013,None,0.2,0.35,320.1342146000243,320.27064030000474,320.1342146000243,320.27064030000474,320.1342146000243,320.27064030000474,space,0.2831665999838151,320.1342146000243,None,320.43820440000854,None,3,001,2020_Apr_15_1924,experiment,2020.1.3,59.98418815933137,
images/light_grey_box,images/light_grey_box,images/light_grey_box_with_cue,images/light_grey_box,images/light_grey_box,images/light_grey_box_with_target,0,0.2,0.35,0,108,108,77,,,,,,,,,,,,,320.95333109999774,None,320.95333109999774,None,320.95333109999774,None,321.9651879000012,None,321.9651879000012,None,321.9651879000012,None,0.1,0.25,322.1697754000197,322.35305600002175,322.1697754000197,322.35305600002175,322.1697754000197,322.35305600002175,space,0.342935899971053,322.1697754000197,None,322.53716020000866,None,3,001,2020_Apr_15_1924,experiment,2020.1.3,59.98418815933137,
images/light_grey_box,images/light_grey_box,images/light_grey_box_with_cue,images/light_grey_box,images/light_grey_box,images/light_grey_box,0,0.5,0.65,0,109,109,118,,,,,,,,,,,,,323.0362740000128,None,323.0362740000128,None,323.0362740000128,None,324.05111130001023,None,324.05111130001023,None,324.05111130001023,None,0.3,0.44999999999999996,324.2338388999924,324.43587570003,324.2338388999924,324.43587570003,324.2338388999924,324.43587570003,space,0.21158659999491647,324.2338388999924,None,324.47084790002555,None,3,001,2020_Apr_15_1924,experiment,2020.1.3,59.98418815933137,
images/light_grey_box_with_cue,images/light_grey_box,images/light_grey_box,images/light_grey_box_with_target,images/light_grey_box,images/light_grey_box,0,0.2,0.35,0,110,110,66,,,,,,,,,,,,,324.98589800001355,None,324.98589800001355,None,324.98589800001355,None,325.9998502000235,None,325.9998502000235,None,325.9998502000235,None,0.5,0.65,326.15469570003916,326.3521993000177,326.15469570003916,326.3521993000177,326.15469570003916,326.3521993000177,space,0.33251119998749346,326.15469570003916,None,326.5193561000051,None,3,001,2020_Apr_15_1924,experiment,2020.1.3,59.98418815933137,
images/light_grey_box,images/light_grey_box,images/light_grey_box_with_cue,images/light_grey_box,images/light_grey_box,images/light_grey_box_with_target,0,0.1,0.25,0,111,111,57,,,,,,,,,,,,,327.0189991000225,None,327.0189991000225,None,327.0189991000225,None,328.0444209999987,None,328.0444209999987,None,328.0444209999987,None,0.0,0.15,328.20384620002005,328.35318869998446,328.20384620002005,328.35318869998446,328.20384620002005,328.35318869998446,space,0.35242399998242036,328.20384620002005,None,328.58558780001476,None,3,001,2020_Apr_15_1924,experiment,2020.1.3,59.98418815933137,
images/light_grey_box_with_cue,images/light_grey_box,images/light_grey_box,images/light_grey_box,images/light_grey_box_with_target,images/light_grey_box,0,0.1,0.25,0,112,112,40,,,,,,,,,,,,,329.085496100015,None,329.085496100015,None,329.085496100015,None,330.10869650001405,None,330.10869650001405,None,330.10869650001405,None,0.1,0.25,330.3517653000308,330.4017647000146,330.3517653000308,330.4017647000146,330.3517653000308,330.4017647000146,space,0.45871199999237433,330.3517653000308,None,330.8371664999868,None,3,001,2020_Apr_15_1924,experiment,2020.1.3,59.98418815933137,
images/light_grey_box_with_cue,images/light_grey_box,images/light_grey_box,images/light_grey_box,images/light_grey_box,images/light_grey_box_with_target,0,0.5,0.65,0,113,113,107,,,,,,,,,,,,,331.35157709999476,None,331.35157709999476,None,331.35157709999476,None,332.37138940003933,None,332.37138940003933,None,332.37138940003933,None,0.3,0.44999999999999996,332.53842280001845,332.6675783999963,332.53842280001845,332.6675783999963,332.53842280001845,332.6675783999963,space,0.19004739995580167,332.53842280001845,None,332.7524106000201,None,3,001,2020_Apr_15_1924,experiment,2020.1.3,59.98418815933137,
images/light_grey_box_with_cue,images/light_grey_box,images/light_grey_box,images/light_grey_box,images/light_grey_box_with_target,images/light_grey_box,0,0.0,0.15,0,114,114,0,,,,,,,,,,,,,333.2680571000092,None,333.2680571000092,None,333.2680571000092,None,334.2867645000224,None,334.2867645000224,None,334.2867645000224,None,0.0,0.15,334.48471069999505,334.5839665000094,334.48471069999505,334.5839665000094,334.48471069999505,334.5839665000094,space,0.2532041000085883,334.48471069999505,None,334.76890500000445,None,3,001,2020_Apr_15_1924,experiment,2020.1.3,59.98418815933137,
images/light_grey_box_with_cue,images/light_grey_box,images/light_grey_box,images/light_grey_box_with_target,images/light_grey_box,images/light_grey_box,0,0.0,0.15,0,115,115,6,,,,,,,,,,,,,335.28413670003647,None,335.28413670003647,None,335.28413670003647,None,336.3049952000147,None,336.3049952000147,None,336.3049952000147,None,0.5,0.65,336.51768430002267,336.60041260003345,336.51768430002267,336.60041260003345,336.51768430002267,336.60041260003345,space,1.1611833000206389,336.51768430002267,None,337.70256320002954,None,3,001,2020_Apr_15_1924,experiment,2020.1.3,59.98418815933137,
images/light_grey_box,images/light_grey_box,images/light_grey_box_with_cue,images/light_grey_box,images/light_grey_box,images/light_grey_box,0,0.0,0.15,0,116,116,18,,,,,,,,,,,,,338.2180078999954,None,338.2180078999954,None,338.2180078999954,None,339.2440627000178,None,339.2440627000178,None,339.2440627000178,None,0.1,0.25,339.4331542000291,339.5330500000273,339.4331542000291,339.5330500000273,339.4331542000291,339.5330500000273,space,0.18998239998472854,339.4331542000291,None,339.6511635000352,None,3,001,2020_Apr_15_1924,experiment,2020.1.3,59.98418815933137,
images/light_grey_box_with_cue,images/light_grey_box,images/light_grey_box,images/light_grey_box,images/light_grey_box,images/light_grey_box,0,0.1,0.25,0,117,117,48,,,,,,,,,,,,,340.1665665000328,None,340.1665665000328,None,340.1665665000328,None,341.18017740000505,None,341.18017740000505,None,341.18017740000505,None,0.2,0.35,341.3658002000302,341.4990961999865,341.3658002000302,341.4990961999865,341.3658002000302,341.4990961999865,space,4.590188500005752,341.3658002000302,None,345.9835619000369,None,3,001,2020_Apr_15_1924,experiment,2020.1.3,59.98418815933137,
images/light_grey_box,images/light_grey_box,images/light_grey_box_with_cue,images/light_grey_box,images/light_grey_box_with_target,images/light_grey_box,0,0.05,0.2,0,118,118,31,,,,,,,,,,,,,346.49842920002993,None,346.49842920002993,None,346.49842920002993,None,347.51256230002036,None,347.51256230002036,None,347.51256230002036,None,0.1,0.25,347.6979791999911,347.8311499999836,347.6979791999911,347.8311499999836,347.6979791999911,347.8311499999836,space,0.23591670003952459,347.6979791999911,None,347.96515880001243,None,3,001,2020_Apr_15_1924,experiment,2020.1.3,59.98418815933137,
images/light_grey_box,images/light_grey_box,images/light_grey_box_with_cue,images/light_grey_box,images/light_grey_box_with_target,images/light_grey_box,0,0.2,0.35,0,119,119,71,,,,,,,,,,,,,348.46458570001414,None,348.46458570001414,None,348.46458570001414,None,349.47491220000666,None,349.47491220000666,None,349.47491220000666,None,0.0,0.15,349.697585100017,349.8308885000297,349.697585100017,349.8308885000297,349.697585100017,349.8308885000297,space,0.2612789999693632,349.697585100017,None,349.98193720000563,None,3,001,2020_Apr_15_1924,experiment,2020.1.3,59.98418815933137,
