image_cue_1,image_cue_2,image_cue_3,image_target_1,image_target_2,image_target_3,targetStart,startTime,endTime,trials.thisRepN,trials.thisTrialN,trials.thisN,trials.thisIndex,textWelcome.started,textWelcome.stopped,keyWelcome.keys,keyWelcome.rt,keyWelcome.started,keyWelcome.stopped,textStart.started,textStart.stopped,keyStart.keys,keyStart.rt,keyStart.started,keyStart.stopped,imageTrailBefore_1.started,imageTrailBefore_1.stopped,imageTrialBefore_2.started,imageTrialBefore_2.stopped,imageTrialBefore_3.started,imageTrialBefore_3.stopped,imageTrialCue_1.started,imageTrialCue_1.stopped,imageTrialCue_2.started,imageTrialCue_2.stopped,imageTrialCue_3.started,imageTrialCue_3.stopped,TrialSceenTargetStart,TrialSceenTargetEnd,imageTrialTarget_1.started,imageTrialTarget_1.stopped,imageTrialTarget_2.started,imageTrialTarget_2.stopped,imageTrialTarget_3.started,imageTrialTarget_3.stopped,keyResponse.keys,keyResponse.rt,keyResponse.started,keyResponse.stopped,textBlank500.started,textBlank500.stopped,textEndSceen.started,textEndSceen.stopped,participant,session,date,expName,psychopyVersion,frameRate,
,,,,,,,,,,,,,15.941304800042417,None,space,38.43673590000253,15.941304800042417,None,,,,,,,,,,,,,,,,,,,,,,,,,,,,,,,,,,,4,001,2020_Apr_15_1931,experiment,2020.1.3,59.83942687832134,
,,,,,,,,,,,,,,,,,,,54.397541300044395,None,space,6.128487300011329,54.397541300044395,None,,,,,,,,,,,,,,,,,,,,,,,,,,,,,4,001,2020_Apr_15_1931,experiment,2020.1.3,59.83942687832134,
images/light_grey_box,images/light_grey_box,images/light_grey_box_with_cue,images/light_grey_box,images/light_grey_box_with_target,images/light_grey_box,0,0.1,0.25,0,0,0,50,,,,,,,,,,,,,60.65397010004381,None,60.65397010004381,None,60.65397010004381,None,61.59125250001671,None,61.59125250001671,None,61.59125250001671,None,0.05,0.2,61.80822669999907,61.89021410001442,61.80822669999907,61.89021410001442,61.80822669999907,61.89021410001442,space,3.3507861000252888,61.80822669999907,None,65.19170309999026,None,,,4,001,2020_Apr_15_1931,experiment,2020.1.3,59.83942687832134,
images/light_grey_box_with_cue,images/light_grey_box,images/light_grey_box,images/light_grey_box,images/light_grey_box_with_target,images/light_grey_box,0,0.1,0.25,0,1,1,41,,,,,,,,,,,,,65.70607260003453,None,65.70607260003453,None,65.70607260003453,None,66.71876530000009,None,66.71876530000009,None,66.71876530000009,None,0.05,0.2,66.90584720001789,67.10583320003934,66.90584720001789,67.10583320003934,66.90584720001789,67.10583320003934,space,6.133589400036726,66.90584720001789,None,73.05572360003134,None,,,4,001,2020_Apr_15_1931,experiment,2020.1.3,59.83942687832134,
images/light_grey_box_with_cue,images/light_grey_box,images/light_grey_box,images/light_grey_box,images/light_grey_box,images/light_grey_box,0,0.05,0.2,0,2,2,28,,,,,,,,,,,,,73.55546180001693,None,73.55546180001693,None,73.55546180001693,None,74.5909159000148,None,74.5909159000148,None,74.5909159000148,None,0.3,0.44999999999999996,74.78837830002885,74.96971209999174,74.78837830002885,74.96971209999174,74.78837830002885,74.96971209999174,space,0.2242421999690123,74.78837830002885,None,75.04110480000963,None,,,4,001,2020_Apr_15_1931,experiment,2020.1.3,59.83942687832134,
images/light_grey_box_with_cue,images/light_grey_box,images/light_grey_box,images/light_grey_box,images/light_grey_box,images/light_grey_box,0,0.1,0.25,0,3,3,48,,,,,,,,,,,,,75.55645670002559,None,75.55645670002559,None,75.55645670002559,None,76.5751375000109,None,76.5751375000109,None,76.5751375000109,None,0.2,0.35,76.80607650004094,76.92144950001966,76.80607650004094,76.92144950001966,76.80607650004094,76.92144950001966,space,4.2804865000071,76.80607650004094,None,81.1036238000379,None,,,4,001,2020_Apr_15_1931,experiment,2020.1.3,59.83942687832134,
images/light_grey_box,images/light_grey_box,images/light_grey_box,images/light_grey_box,images/light_grey_box_with_target,images/light_grey_box,0,0.5,0.65,0,4,4,115,,,,,,,,,,,,,81.60289580002427,None,81.60289580002427,None,81.60289580002427,None,82.61478619999252,None,82.61478619999252,None,82.61478619999252,None,0.0,0.15,82.81939459999558,82.91923450003378,82.81939459999558,82.91923450003378,82.81939459999558,82.91923450003378,space,5.060050599975511,82.81939459999558,None,87.90315790002933,None,,,4,001,2020_Apr_15_1931,experiment,2020.1.3,59.83942687832134,
images/light_grey_box_with_cue,images/light_grey_box,images/light_grey_box,images/light_grey_box,images/light_grey_box_with_target,images/light_grey_box,0,0.3,0.45,0,5,5,82,,,,,,,,,,,,,88.41874370002188,None,88.41874370002188,None,88.41874370002188,None,89.43057770002633,None,89.43057770002633,None,89.43057770002633,None,0.5,0.65,89.61794369999552,89.76792130002286,89.61794369999552,89.76792130002286,89.61794369999552,89.76792130002286,space,0.2936543999821879,89.61794369999552,None,89.9349988999893,None,,,4,001,2020_Apr_15_1931,experiment,2020.1.3,59.83942687832134,
images/light_grey_box_with_cue,images/light_grey_box,images/light_grey_box,images/light_grey_box,images/light_grey_box_with_target,images/light_grey_box,0,0.2,0.35,0,6,6,60,,,,,,,,,,,,,90.43440860003466,None,90.43440860003466,None,90.43440860003466,None,91.44769810000435,None,91.44769810000435,None,91.44769810000435,None,0.0,0.15,91.68417620001128,91.78429510002024,91.68417620001128,91.78429510002024,91.68417620001128,91.78429510002024,space,0.18491369998082519,91.68417620001128,None,91.88501880003605,None,,,4,001,2020_Apr_15_1931,experiment,2020.1.3,59.83942687832134,
images/light_grey_box,images/light_grey_box,images/light_grey_box,images/light_grey_box,images/light_grey_box_with_target,images/light_grey_box,0,0.1,0.25,0,7,7,54,,,,,,,,,,,,,92.40087589999894,None,92.40087589999894,None,92.40087589999894,None,93.41222440003185,None,93.41222440003185,None,93.41222440003185,None,0.05,0.2,93.58393150003394,93.7673814999871,93.58393150003394,93.7673814999871,93.58393150003394,93.7673814999871,space,3.1021033000433818,93.58393150003394,None,96.71694529999513,None,,,4,001,2020_Apr_15_1931,experiment,2020.1.3,59.83942687832134,
images/light_grey_box,images/light_grey_box,images/light_grey_box_with_cue,images/light_grey_box,images/light_grey_box_with_target,images/light_grey_box,0,0.0,0.15,0,8,8,15,,,,,,,,,,,,,97.21849990001647,None,97.21849990001647,None,97.21849990001647,None,98.25163130002329,None,98.25163130002329,None,98.25163130002329,None,0.1,0.25,98.5494175000349,98.66606000001775,98.5494175000349,98.66606000001775,98.5494175000349,98.66606000001775,space,0.16131180000957102,98.5494175000349,None,98.73367380001582,None,,,4,001,2020_Apr_15_1931,experiment,2020.1.3,59.83942687832134,
images/light_grey_box,images/light_grey_box,images/light_grey_box_with_cue,images/light_grey_box,images/light_grey_box_with_target,images/light_grey_box,0,0.3,0.45,0,9,9,91,,,,,,,,,,,,,99.24928470002487,None,99.24928470002487,None,99.24928470002487,None,100.2628010000335,None,100.2628010000335,None,100.2628010000335,None,0.1,0.25,100.51580719999038,100.5490646000253,100.51580719999038,100.5490646000253,100.51580719999038,100.5490646000253,space,0.10972509998828173,100.51580719999038,None,100.65017480001552,None,,,4,001,2020_Apr_15_1931,experiment,2020.1.3,59.83942687832134,
images/light_grey_box_with_cue,images/light_grey_box,images/light_grey_box,images/light_grey_box,images/light_grey_box_with_target,images/light_grey_box,0,0.1,0.25,0,10,10,42,,,,,,,,,,,,,101.16566190001322,None,101.16566190001322,None,101.16566190001322,None,102.18444089998957,None,102.18444089998957,None,102.18444089998957,None,0.05,0.2,102.39869990001898,102.53189350001048,102.39869990001898,102.53189350001048,102.39869990001898,102.53189350001048,space,0.3901243000291288,102.39869990001898,None,102.81655049999245,None,,,4,001,2020_Apr_15_1931,experiment,2020.1.3,59.83942687832134,
images/light_grey_box,images/light_grey_box,images/light_grey_box,images/light_grey_box,images/light_grey_box_with_target,images/light_grey_box,0,0.2,0.35,0,11,11,74,,,,,,,,,,,,,103.33183929999359,None,103.33183929999359,None,103.33183929999359,None,104.34253990004072,None,104.34253990004072,None,104.34253990004072,None,0.5,0.65,104.5317967000301,104.6980832000263,104.5317967000301,104.6980832000263,104.5317967000301,104.6980832000263,space,0.2558257000055164,104.5317967000301,None,104.81672040000558,None,,,4,001,2020_Apr_15_1931,experiment,2020.1.3,59.83942687832134,
images/light_grey_box,images/light_grey_box,images/light_grey_box_with_cue,images/light_grey_box,images/light_grey_box,images/light_grey_box,0,0.3,0.45,0,12,12,98,,,,,,,,,,,,,105.33161360002123,None,105.33161360002123,None,105.33161360002123,None,106.35238600004232,None,106.35238600004232,None,106.35238600004232,None,0.0,0.15,106.4932783000404,106.69774670002516,106.4932783000404,106.69774670002516,106.4932783000404,106.69774670002516,space,0.33552429999690503,106.4932783000404,None,106.84975679998752,None,,,4,001,2020_Apr_15_1931,experiment,2020.1.3,59.83942687832134,
images/light_grey_box_with_cue,images/light_grey_box,images/light_grey_box,images/light_grey_box,images/light_grey_box_with_target,images/light_grey_box,0,0.2,0.35,0,13,13,61,,,,,,,,,,,,,107.36431110004196,None,107.36431110004196,None,107.36431110004196,None,108.3762982999906,None,108.3762982999906,None,108.3762982999906,None,0.2,0.35,108.61428480001632,108.7141910000355,108.61428480001632,108.7141910000355,108.61428480001632,108.7141910000355,space,0.15551150002283975,108.61428480001632,None,108.79826250002952,None,,,4,001,2020_Apr_15_1931,experiment,2020.1.3,59.83942687832134,
images/light_grey_box,images/light_grey_box,images/light_grey_box_with_cue,images/light_grey_box,images/light_grey_box_with_target,images/light_grey_box,0,0.5,0.65,0,14,14,112,,,,,,,,,,,,,109.29925879999064,None,109.29925879999064,None,109.29925879999064,None,110.3291457000305,None,110.3291457000305,None,110.3291457000305,None,0.0,0.15,110.53053260000888,110.68040479999036,110.53053260000888,110.68040479999036,110.53053260000888,110.68040479999036,space,0.23992620001081377,110.53053260000888,None,110.79815370001597,None,,,4,001,2020_Apr_15_1931,experiment,2020.1.3,59.83942687832134,
images/light_grey_box_with_cue,images/light_grey_box,images/light_grey_box,images/light_grey_box,images/light_grey_box_with_target,images/light_grey_box,0,0.5,0.65,0,15,15,100,,,,,,,,,,,,,111.31375610001851,None,111.31375610001851,None,111.31375610001851,None,112.3268451000331,None,112.3268451000331,None,112.3268451000331,None,0.0,0.15,112.51346190000186,None,112.51346190000186,None,112.51346190000186,None,space,0.16673969995463267,112.51346190000186,None,112.69747130002361,None,,,4,001,2020_Apr_15_1931,experiment,2020.1.3,59.83942687832134,
images/light_grey_box_with_cue,images/light_grey_box,images/light_grey_box,images/light_grey_box_with_target,images/light_grey_box,images/light_grey_box,0,0.1,0.25,0,16,16,46,,,,,,,,,,,,,113.21320830000332,None,113.21320830000332,None,113.21320830000332,None,114.22516940004425,None,114.22516940004425,None,114.22516940004425,None,0.05,0.2,114.39640510000754,114.56286800000817,114.39640510000754,114.56286800000817,114.39640510000754,114.56286800000817,space,0.26627099997131154,114.39640510000754,None,114.68036140000913,None,,,4,001,2020_Apr_15_1931,experiment,2020.1.3,59.83942687832134,
images/light_grey_box,images/light_grey_box,images/light_grey_box,images/light_grey_box,images/light_grey_box_with_target,images/light_grey_box,0,0.3,0.45,0,17,17,93,,,,,,,,,,,,,115.179668900033,None,115.179668900033,None,115.179668900033,None,116.20674530003453,None,116.20674530003453,None,116.20674530003453,None,0.2,0.35,116.48170500004198,116.53188460000092,116.48170500004198,116.53188460000092,116.48170500004198,116.53188460000092,space,0.18724090000614524,116.48170500004198,None,116.69931430002907,None,,,4,001,2020_Apr_15_1931,experiment,2020.1.3,59.83942687832134,
images/light_grey_box,images/light_grey_box,images/light_grey_box,images/light_grey_box,images/light_grey_box_with_target,images/light_grey_box,0,0.05,0.2,0,18,18,34,,,,,,,,,,,,,117.21263000002364,None,117.21263000002364,None,117.21263000002364,None,118.22243890003301,None,118.22243890003301,None,118.22243890003301,None,0.2,0.35,118.39545579999685,118.5121943000122,118.39545579999685,118.5121943000122,118.39545579999685,118.5121943000122,space,2.4582934000063688,118.39545579999685,None,120.88253110001097,None,,,4,001,2020_Apr_15_1931,experiment,2020.1.3,59.83942687832134,
images/light_grey_box_with_cue,images/light_grey_box,images/light_grey_box,images/light_grey_box,images/light_grey_box_with_target,images/light_grey_box,0,0.05,0.2,0,19,19,24,,,,,,,,,,,,,121.3963074000203,None,121.3963074000203,None,121.3963074000203,None,122.41984730004333,None,122.41984730004333,None,122.41984730004333,None,0.2,0.35,122.61239319999004,122.77995990001364,122.61239319999004,122.77995990001364,122.61239319999004,122.77995990001364,space,0.20678280002903193,122.61239319999004,None,122.85143129999051,None,,,4,001,2020_Apr_15_1931,experiment,2020.1.3,59.83942687832134,
images/light_grey_box,images/light_grey_box,images/light_grey_box_with_cue,images/light_grey_box,images/light_grey_box_with_target,images/light_grey_box,0,0.0,0.15,0,20,20,11,,,,,,,,,,,,,123.36126380000496,None,123.36126380000496,None,123.36126380000496,None,124.3780610000249,None,124.3780610000249,None,124.3780610000249,None,0.5,0.65,124.57787520001875,124.66303450003034,124.57787520001875,124.66303450003034,124.57787520001875,124.66303450003034,space,0.19706000003498048,124.57787520001875,None,124.79606399999466,None,,,4,001,2020_Apr_15_1931,experiment,2020.1.3,59.83942687832134,
images/light_grey_box,images/light_grey_box,images/light_grey_box_with_cue,images/light_grey_box,images/light_grey_box_with_target,images/light_grey_box,0,0.3,0.45,0,21,21,90,,,,,,,,,,,,,125.29778880003141,None,125.29778880003141,None,125.29778880003141,None,126.33016100001987,None,126.33016100001987,None,126.33016100001987,None,0.0,0.15,126.57745829998748,126.71035529999062,126.57745829998748,126.71035529999062,126.57745829998748,126.71035529999062,space,0.22109850001288578,126.57745829998748,None,126.83016890002182,None,,,4,001,2020_Apr_15_1931,experiment,2020.1.3,59.83942687832134,
images/light_grey_box_with_cue,images/light_grey_box,images/light_grey_box,images/light_grey_box_with_target,images/light_grey_box,images/light_grey_box,0,0.2,0.35,0,22,22,66,,,,,,,,,,,,,127.34392300003674,None,127.34392300003674,None,127.34392300003674,None,128.36294550000457,None,128.36294550000457,None,128.36294550000457,None,0.2,0.35,128.57685110002058,128.66036989999702,128.57685110002058,128.66036989999702,128.57685110002058,128.66036989999702,space,0.20050310000078753,128.57685110002058,None,128.79527020000387,None,,,4,001,2020_Apr_15_1931,experiment,2020.1.3,59.83942687832134,
images/light_grey_box_with_cue,images/light_grey_box,images/light_grey_box,images/light_grey_box,images/light_grey_box_with_target,images/light_grey_box,0,0.3,0.45,0,23,23,81,,,,,,,,,,,,,129.31024670001352,None,129.31024670001352,None,129.31024670001352,None,130.3255874000024,None,130.3255874000024,None,130.3255874000024,None,0.2,0.35,130.47400400001789,130.64298030000646,130.47400400001789,130.64298030000646,130.47400400001789,130.64298030000646,space,0.4092448999872431,130.47400400001789,None,130.9125720000011,None,,,4,001,2020_Apr_15_1931,experiment,2020.1.3,59.83942687832134,
images/light_grey_box_with_cue,images/light_grey_box,images/light_grey_box,images/light_grey_box,images/light_grey_box_with_target,images/light_grey_box,0,0.2,0.35,0,24,24,63,,,,,,,,,,,,,131.42693870002404,None,131.42693870002404,None,131.42693870002404,None,132.4477887999965,None,132.4477887999965,None,132.4477887999965,None,0.1,0.25,132.6759432000108,132.8424662000034,132.6759432000108,132.8424662000034,132.6759432000108,132.8424662000034,space,0.17639380000764504,132.6759432000108,None,132.8768781000399,None,,,4,001,2020_Apr_15_1931,experiment,2020.1.3,59.83942687832134,
images/light_grey_box,images/light_grey_box,images/light_grey_box_with_cue,images/light_grey_box,images/light_grey_box,images/light_grey_box_with_target,0,0.1,0.25,0,25,25,57,,,,,,,,,,,,,133.39249830000335,None,133.39249830000335,None,133.39249830000335,None,134.40492370002903,None,134.40492370002903,None,134.40492370002903,None,0.0,0.15,134.5755965000135,134.74229740002193,134.5755965000135,134.74229740002193,134.5755965000135,134.74229740002193,space,0.3743591000093147,134.5755965000135,None,134.9768013000139,None,,,4,001,2020_Apr_15_1931,experiment,2020.1.3,59.83942687832134,
images/light_grey_box_with_cue,images/light_grey_box,images/light_grey_box,images/light_grey_box,images/light_grey_box,images/light_grey_box_with_target,0,0.1,0.25,0,26,26,47,,,,,,,,,,,,,135.49266240000725,None,135.49266240000725,None,135.49266240000725,None,136.5048766999971,None,136.5048766999971,None,136.5048766999971,None,0.3,0.44999999999999996,136.6923911999911,136.80841629998758,136.6923911999911,136.80841629998758,136.6923911999911,136.80841629998758,space,0.28869449999183416,136.6923911999911,None,137.00977559998864,None,,,4,001,2020_Apr_15_1931,experiment,2020.1.3,59.83942687832134,
images/light_grey_box,images/light_grey_box,images/light_grey_box,images/light_grey_box,images/light_grey_box_with_target,images/light_grey_box,0,0.5,0.65,0,27,27,116,,,,,,,,,,,,,137.51175770000555,None,137.51175770000555,None,137.51175770000555,None,138.53643169999123,None,138.53643169999123,None,138.53643169999123,None,0.1,0.25,138.77476639999077,138.92822430003434,138.77476639999077,138.92822430003434,138.77476639999077,138.92822430003434,space,2.3507398999645375,138.77476639999077,None,141.14173420000589,None,,,4,001,2020_Apr_15_1931,experiment,2020.1.3,59.83942687832134,
images/light_grey_box_with_cue,images/light_grey_box,images/light_grey_box,images/light_grey_box,images/light_grey_box_with_target,images/light_grey_box,0,0.2,0.35,0,28,28,65,,,,,,,,,,,,,141.65750309999567,None,141.65750309999567,None,141.65750309999567,None,142.66988270002184,None,142.66988270002184,None,142.66988270002184,None,0.05,0.2,142.89169960003346,None,142.89169960003346,None,142.89169960003346,None,space,0.11666979995789006,142.89169960003346,None,143.02515270002186,None,,,4,001,2020_Apr_15_1931,experiment,2020.1.3,59.83942687832134,
images/light_grey_box,images/light_grey_box,images/light_grey_box,images/light_grey_box,images/light_grey_box_with_target,images/light_grey_box,0,0.3,0.45,0,29,29,96,,,,,,,,,,,,,143.54048329999205,None,143.54048329999205,None,143.54048329999205,None,144.5495761000202,None,144.5495761000202,None,144.5495761000202,None,0.5,0.65,144.70398510002997,144.9567751000286,144.70398510002997,144.9567751000286,144.70398510002997,144.9567751000286,space,0.566218200023286,144.70398510002997,None,145.29121830000076,None,,,4,001,2020_Apr_15_1931,experiment,2020.1.3,59.83942687832134,
images/light_grey_box,images/light_grey_box,images/light_grey_box_with_cue,images/light_grey_box,images/light_grey_box_with_target,images/light_grey_box,0,0.1,0.25,0,30,30,51,,,,,,,,,,,,,145.8066228000098,None,145.8066228000098,None,145.8066228000098,None,146.81821719999425,None,146.81821719999425,None,146.81821719999425,None,0.2,0.35,147.07305150001775,147.1895943999989,147.07305150001775,147.1895943999989,147.07305150001775,147.1895943999989,space,8.611041700001806,147.07305150001775,None,155.70546580001246,None,,,4,001,2020_Apr_15_1931,experiment,2020.1.3,59.83942687832134,
images/light_grey_box_with_cue,images/light_grey_box,images/light_grey_box,images/light_grey_box,images/light_grey_box_with_target,images/light_grey_box,0,0.0,0.15,0,31,31,4,,,,,,,,,,,,,156.20873920002487,None,156.20873920002487,None,156.20873920002487,None,157.23384880000958,None,157.23384880000958,None,157.23384880000958,None,0.2,0.35,157.38569870003266,157.55430600000545,157.38569870003266,157.55430600000545,157.38569870003266,157.55430600000545,space,1.3030533000128344,157.38569870003266,None,158.70675060001668,None,,,4,001,2020_Apr_15_1931,experiment,2020.1.3,59.83942687832134,
images/light_grey_box,images/light_grey_box,images/light_grey_box_with_cue,images/light_grey_box,images/light_grey_box,images/light_grey_box,0,0.5,0.65,0,32,32,118,,,,,,,,,,,,,159.22065470000962,None,159.22065470000962,None,159.22065470000962,None,160.233977099997,None,160.233977099997,None,160.233977099997,None,0.0,0.15,160.45363689999795,160.5369961000397,160.45363689999795,160.5369961000397,160.45363689999795,160.5369961000397,space,0.46718229999532923,160.45363689999795,None,160.9384211000288,None,,,4,001,2020_Apr_15_1931,experiment,2020.1.3,59.83942687832134,
images/light_grey_box,images/light_grey_box,images/light_grey_box_with_cue,images/light_grey_box,images/light_grey_box,images/light_grey_box,0,0.3,0.45,0,33,33,99,,,,,,,,,,,,,161.43767459999071,None,161.43767459999071,None,161.43767459999071,None,162.46672379999654,None,162.46672379999654,None,162.46672379999654,None,0.3,0.44999999999999996,162.70379310002318,162.76983280002605,162.70379310002318,162.76983280002605,162.70379310002318,162.76983280002605,space,0.17955679999431595,162.70379310002318,None,162.90509800001746,None,,,4,001,2020_Apr_15_1931,experiment,2020.1.3,59.83942687832134,
images/light_grey_box,images/light_grey_box,images/light_grey_box_with_cue,images/light_grey_box,images/light_grey_box,images/light_grey_box_with_target,0,0.2,0.35,0,34,34,77,,,,,,,,,,,,,163.42142940004123,None,163.42142940004123,None,163.42142940004123,None,164.43135120003717,None,164.43135120003717,None,164.43135120003717,None,0.05,0.2,164.602747500001,164.85278720001224,164.602747500001,164.85278720001224,164.602747500001,164.85278720001224,space,0.28134420001879334,164.602747500001,None,164.9038118000026,None,,,4,001,2020_Apr_15_1931,experiment,2020.1.3,59.83942687832134,
images/light_grey_box,images/light_grey_box,images/light_grey_box_with_cue,images/light_grey_box,images/light_grey_box,images/light_grey_box,0,0.2,0.35,0,35,35,79,,,,,,,,,,,,,165.41942160000326,None,165.41942160000326,None,165.41942160000326,None,166.43288159999065,None,166.43288159999065,None,166.43288159999065,None,0.2,0.35,166.60021960001905,166.76914360001683,166.60021960001905,166.76914360001683,166.60021960001905,166.76914360001683,space,0.17735640000319108,166.60021960001905,None,166.80335890001152,None,,,4,001,2020_Apr_15_1931,experiment,2020.1.3,59.83942687832134,
images/light_grey_box,images/light_grey_box,images/light_grey_box_with_cue,images/light_grey_box,images/light_grey_box,images/light_grey_box,0,0.05,0.2,0,36,36,39,,,,,,,,,,,,,167.31896520004375,None,167.31896520004375,None,167.31896520004375,None,168.331963500008,None,168.331963500008,None,168.331963500008,None,0.3,0.44999999999999996,168.47914940002374,168.65215680003166,168.47914940002374,168.65215680003166,168.47914940002374,168.65215680003166,space,0.2580727000022307,168.47914940002374,None,168.7695829999866,None,,,4,001,2020_Apr_15_1931,experiment,2020.1.3,59.83942687832134,
images/light_grey_box,images/light_grey_box,images/light_grey_box,images/light_grey_box,images/light_grey_box_with_target,images/light_grey_box,0,0.1,0.25,0,37,37,53,,,,,,,,,,,,,169.28535050002392,None,169.28535050002392,None,169.28535050002392,None,170.29488260002108,None,170.29488260002108,None,170.29488260002108,None,0.5,0.65,170.46831810002914,170.60150930000236,170.46831810002914,170.60150930000236,170.46831810002914,170.60150930000236,space,1.867241700005252,170.46831810002914,None,172.35539819998667,None,,,4,001,2020_Apr_15_1931,experiment,2020.1.3,59.83942687832134,
images/light_grey_box,images/light_grey_box,images/light_grey_box_with_cue,images/light_grey_box,images/light_grey_box,images/light_grey_box,0,0.2,0.35,0,38,38,78,,,,,,,,,,,,,172.8677766000037,None,172.8677766000037,None,172.8677766000037,None,173.87953590002144,None,173.87953590002144,None,173.87953590002144,None,0.05,0.2,174.0299978000112,174.25094759999774,174.0299978000112,174.25094759999774,174.0299978000112,174.25094759999774,space,0.21513459994457662,174.0299978000112,None,174.2686402000254,None,,,4,001,2020_Apr_15_1931,experiment,2020.1.3,59.83942687832134,
images/light_grey_box,images/light_grey_box,images/light_grey_box_with_cue,images/light_grey_box,images/light_grey_box_with_target,images/light_grey_box,0,0.0,0.15,0,39,39,10,,,,,,,,,,,,,174.78416079998715,None,174.78416079998715,None,174.78416079998715,None,175.79582980001578,None,175.79582980001578,None,175.79582980001578,None,0.3,0.44999999999999996,175.98407649999717,176.10057090001646,175.98407649999717,176.10057090001646,175.98407649999717,176.10057090001646,space,0.16996269999071956,175.98407649999717,None,176.1845464000362,None,,,4,001,2020_Apr_15_1931,experiment,2020.1.3,59.83942687832134,
images/light_grey_box,images/light_grey_box,images/light_grey_box_with_cue,images/light_grey_box,images/light_grey_box,images/light_grey_box,0,0.1,0.25,0,40,40,59,,,,,,,,,,,,,176.6838315000059,None,176.6838315000059,None,176.6838315000059,None,177.69734370004153,None,177.69734370004153,None,177.69734370004153,None,0.5,0.65,177.88112309999997,178.06730059999973,177.88112309999997,178.06730059999973,177.88112309999997,178.06730059999973,space,0.20695840002736077,177.88112309999997,None,178.11726960004307,None,,,4,001,2020_Apr_15_1931,experiment,2020.1.3,59.83942687832134,
images/light_grey_box,images/light_grey_box,images/light_grey_box,images/light_grey_box,images/light_grey_box_with_target,images/light_grey_box,0,0.2,0.35,0,41,41,75,,,,,,,,,,,,,178.61676070000976,None,178.61676070000976,None,178.61676070000976,None,179.63152900000568,None,179.63152900000568,None,179.63152900000568,None,0.0,0.15,179.83307510003215,179.93295350001426,179.83307510003215,179.93295350001426,179.83307510003215,179.93295350001426,space,2.002437299990561,179.83307510003215,None,181.8664526999928,None,,,4,001,2020_Apr_15_1931,experiment,2020.1.3,59.83942687832134,
images/light_grey_box_with_cue,images/light_grey_box,images/light_grey_box,images/light_grey_box,images/light_grey_box_with_target,images/light_grey_box,0,0.2,0.35,0,42,42,64,,,,,,,,,,,,,182.36603999999352,None,182.36603999999352,None,182.36603999999352,None,183.38039800000843,None,183.38039800000843,None,183.38039800000843,None,0.2,0.35,183.54657579999184,None,183.54657579999184,None,183.54657579999184,None,space,0.2510928999981843,183.54657579999184,None,183.81918430002406,None,,,4,001,2020_Apr_15_1931,experiment,2020.1.3,59.83942687832134,
images/light_grey_box,images/light_grey_box,images/light_grey_box,images/light_grey_box,images/light_grey_box_with_target,images/light_grey_box,0,0.5,0.65,0,43,43,114,,,,,,,,,,,,,184.3326827000128,None,184.3326827000128,None,184.3326827000128,None,185.34119160001865,None,185.34119160001865,None,185.34119160001865,None,0.2,0.35,185.6157829000149,185.6819106999901,185.6157829000149,185.6819106999901,185.6157829000149,185.6819106999901,space,11.528644200006966,185.6157829000149,None,197.16446910001105,None,,,4,001,2020_Apr_15_1931,experiment,2020.1.3,59.83942687832134,
images/light_grey_box_with_cue,images/light_grey_box,images/light_grey_box,images/light_grey_box_with_target,images/light_grey_box,images/light_grey_box,0,0.3,0.45,0,44,44,86,,,,,,,,,,,,,197.67965090001235,None,197.67965090001235,None,197.67965090001235,None,198.6917345999973,None,198.6917345999973,None,198.6917345999973,None,0.3,0.44999999999999996,198.87923630001023,199.02915260003647,198.87923630001023,199.02915260003647,198.87923630001023,199.02915260003647,space,0.4899390999926254,198.87923630001023,None,199.39651940000476,None,,,4,001,2020_Apr_15_1931,experiment,2020.1.3,59.83942687832134,
images/light_grey_box,images/light_grey_box,images/light_grey_box_with_cue,images/light_grey_box,images/light_grey_box,images/light_grey_box_with_target,0,0.5,0.65,0,45,45,117,,,,,,,,,,,,,199.89591950003523,None,199.89591950003523,None,199.89591950003523,None,200.90941439999733,None,200.90941439999733,None,200.90941439999733,None,0.5,0.65,201.07672459998867,201.26209710002877,201.07672459998867,201.26209710002877,201.07672459998867,201.26209710002877,space,0.41907240002183244,201.07672459998867,None,201.51277520001167,None,,,4,001,2020_Apr_15_1931,experiment,2020.1.3,59.83942687832134,
images/light_grey_box_with_cue,images/light_grey_box,images/light_grey_box,images/light_grey_box,images/light_grey_box_with_target,images/light_grey_box,0,0.0,0.15,0,46,46,2,,,,,,,,,,,,,202.01201840001158,None,202.01201840001158,None,202.01201840001158,None,203.0264656000072,None,203.0264656000072,None,203.0264656000072,None,0.1,0.25,203.27839230000973,203.34507919999305,203.27839230000973,203.34507919999305,203.27839230000973,203.34507919999305,space,0.39566560002276674,203.27839230000973,None,203.6955719999969,None,,,4,001,2020_Apr_15_1931,experiment,2020.1.3,59.83942687832134,
images/light_grey_box_with_cue,images/light_grey_box,images/light_grey_box,images/light_grey_box,images/light_grey_box_with_target,images/light_grey_box,0,0.1,0.25,0,47,47,40,,,,,,,,,,,,,204.197807700024,None,204.197807700024,None,204.197807700024,None,205.22680920001585,None,205.22680920001585,None,205.22680920001585,None,0.05,0.2,205.4446762999869,205.59449640003731,205.4446762999869,205.59449640003731,205.4446762999869,205.59449640003731,space,0.35843279998516664,205.4446762999869,None,205.8287452000077,None,,,4,001,2020_Apr_15_1931,experiment,2020.1.3,59.83942687832134,
images/light_grey_box,images/light_grey_box,images/light_grey_box_with_cue,images/light_grey_box,images/light_grey_box_with_target,images/light_grey_box,0,0.05,0.2,0,48,48,32,,,,,,,,,,,,,206.32801280001877,None,206.32801280001877,None,206.32801280001877,None,207.3451968000154,None,207.3451968000154,None,207.3451968000154,None,0.0,0.15,207.56095870002173,207.6608859000262,207.56095870002173,207.6608859000262,207.56095870002173,207.6608859000262,space,0.41751370002748445,207.56095870002173,None,207.99550419999287,None,,,4,001,2020_Apr_15_1931,experiment,2020.1.3,59.83942687832134,
images/light_grey_box_with_cue,images/light_grey_box,images/light_grey_box,images/light_grey_box,images/light_grey_box,images/light_grey_box,0,0.5,0.65,0,49,49,109,,,,,,,,,,,,,208.51071250002133,None,208.51071250002133,None,208.51071250002133,None,209.5225752000115,None,209.5225752000115,None,209.5225752000115,None,0.1,0.25,209.67224670003634,209.84362940001301,209.67224670003634,209.84362940001301,209.67224670003634,209.84362940001301,space,3.1547514999983832,209.67224670003634,None,212.84409680002136,None,,,4,001,2020_Apr_15_1931,experiment,2020.1.3,59.83942687832134,
images/light_grey_box_with_cue,images/light_grey_box,images/light_grey_box,images/light_grey_box,images/light_grey_box,images/light_grey_box,0,0.2,0.35,0,50,50,68,,,,,,,,,,,,,213.3599033000064,None,213.3599033000064,None,213.3599033000064,None,214.3719434000086,None,214.3719434000086,None,214.3719434000086,None,0.05,0.2,214.5931182000204,214.69303760002367,214.5931182000204,214.69303760002367,214.5931182000204,214.69303760002367,space,4.801790199999232,214.5931182000204,None,219.42563240003074,None,,,4,001,2020_Apr_15_1931,experiment,2020.1.3,59.83942687832134,
images/light_grey_box_with_cue,images/light_grey_box,images/light_grey_box,images/light_grey_box,images/light_grey_box,images/light_grey_box,0,0.05,0.2,0,51,51,29,,,,,,,,,,,,,219.9258131000097,None,219.9258131000097,None,219.9258131000097,None,220.95401570003014,None,220.95401570003014,None,220.95401570003014,None,0.2,0.35,221.10237090004375,221.35821040003793,221.10237090004375,221.35821040003793,221.10237090004375,221.35821040003793,space,0.8251047999947332,221.10237090004375,None,221.9585482000257,None,,,4,001,2020_Apr_15_1931,experiment,2020.1.3,59.83942687832134,
images/light_grey_box,images/light_grey_box,images/light_grey_box,images/light_grey_box,images/light_grey_box_with_target,images/light_grey_box,0,0.1,0.25,0,52,52,55,,,,,,,,,,,,,222.4579601000296,None,222.4579601000296,None,222.4579601000296,None,223.46985640004277,None,223.46985640004277,None,223.46985640004277,None,0.1,0.25,223.75769679999212,223.87429559999146,223.75769679999212,223.87429559999146,223.75769679999212,223.87429559999146,space,0.11265099997399375,223.75769679999212,None,223.89216769998893,None,,,4,001,2020_Apr_15_1931,experiment,2020.1.3,59.83942687832134,
images/light_grey_box_with_cue,images/light_grey_box,images/light_grey_box,images/light_grey_box,images/light_grey_box_with_target,images/light_grey_box,0,0.3,0.45,0,53,53,85,,,,,,,,,,,,,224.40753349999432,None,224.40753349999432,None,224.40753349999432,None,225.42021830001613,None,225.42021830001613,None,225.42021830001613,None,0.3,0.44999999999999996,225.70718590001343,225.757329199987,225.70718590001343,225.757329199987,225.70718590001343,225.757329199987,space,0.27211900003021583,225.70718590001343,None,226.00787780003157,None,,,4,001,2020_Apr_15_1931,experiment,2020.1.3,59.83942687832134,
images/light_grey_box_with_cue,images/light_grey_box,images/light_grey_box,images/light_grey_box,images/light_grey_box_with_target,images/light_grey_box,0,0.5,0.65,0,54,54,102,,,,,,,,,,,,,226.50738630001433,None,226.50738630001433,None,226.50738630001433,None,227.52071720000822,None,227.52071720000822,None,227.52071720000822,None,0.3,0.44999999999999996,227.74072450003587,227.8401659000083,227.74072450003587,227.8401659000083,227.74072450003587,227.8401659000083,space,0.15998160000890493,227.74072450003587,None,227.92442330002086,None,,,4,001,2020_Apr_15_1931,experiment,2020.1.3,59.83942687832134,
images/light_grey_box_with_cue,images/light_grey_box,images/light_grey_box,images/light_grey_box,images/light_grey_box_with_target,images/light_grey_box,0,0.0,0.15,0,55,55,3,,,,,,,,,,,,,228.4400953000295,None,228.4400953000295,None,228.4400953000295,None,229.45193270000163,None,229.45193270000163,None,229.45193270000163,None,0.1,0.25,229.6035089000361,229.77313059999142,229.6035089000361,229.77313059999142,229.6035089000361,229.77313059999142,space,0.2315379999927245,229.6035089000361,None,229.85819190001348,None,,,4,001,2020_Apr_15_1931,experiment,2020.1.3,59.83942687832134,
images/light_grey_box_with_cue,images/light_grey_box,images/light_grey_box,images/light_grey_box,images/light_grey_box_with_target,images/light_grey_box,0,0.5,0.65,0,56,56,105,,,,,,,,,,,,,230.37302060000366,None,230.37302060000366,None,230.37302060000366,None,231.4025456000236,None,231.4025456000236,None,231.4025456000236,None,0.5,0.65,231.55696210003225,231.70604409999214,231.55696210003225,231.70604409999214,231.55696210003225,231.70604409999214,space,0.30347970000002533,231.55696210003225,None,231.89019519998692,None,,,4,001,2020_Apr_15_1931,experiment,2020.1.3,59.83942687832134,
images/light_grey_box,images/light_grey_box,images/light_grey_box_with_cue,images/light_grey_box,images/light_grey_box_with_target,images/light_grey_box,0,0.05,0.2,0,57,57,30,,,,,,,,,,,,,232.40602950000903,None,232.40602950000903,None,232.40602950000903,None,233.4186781999888,None,233.4186781999888,None,233.4186781999888,None,0.0,0.15,233.62250800000038,233.77234240004327,233.62250800000038,233.77234240004327,233.62250800000038,233.77234240004327,space,0.1894159999792464,233.62250800000038,None,233.84051780001028,None,,,4,001,2020_Apr_15_1931,experiment,2020.1.3,59.83942687832134,
images/light_grey_box_with_cue,images/light_grey_box,images/light_grey_box,images/light_grey_box,images/light_grey_box,images/light_grey_box,0,0.1,0.25,0,58,58,49,,,,,,,,,,,,,234.3555800000322,None,234.3555800000322,None,234.3555800000322,None,235.36767350003356,None,235.36767350003356,None,235.36767350003356,None,0.3,0.44999999999999996,235.58859960001428,235.72185540001374,235.58859960001428,235.72185540001374,235.58859960001428,235.72185540001374,space,0.18084520002594218,235.58859960001428,None,235.79016770003363,None,,,4,001,2020_Apr_15_1931,experiment,2020.1.3,59.83942687832134,
images/light_grey_box_with_cue,images/light_grey_box,images/light_grey_box,images/light_grey_box_with_target,images/light_grey_box,images/light_grey_box,0,0.5,0.65,0,59,59,106,,,,,,,,,,,,,236.30509899999015,None,236.30509899999015,None,236.30509899999015,None,237.31770190002862,None,237.31770190002862,None,237.31770190002862,None,0.2,0.35,237.50482100003865,237.6047249000403,237.50482100003865,237.6047249000403,237.50482100003865,237.6047249000403,space,0.3258576999651268,237.50482100003865,None,237.8568052999908,None,,,4,001,2020_Apr_15_1931,experiment,2020.1.3,59.83942687832134,
images/light_grey_box_with_cue,images/light_grey_box,images/light_grey_box,images/light_grey_box,images/light_grey_box_with_target,images/light_grey_box,0,0.2,0.35,0,60,60,62,,,,,,,,,,,,,238.37133190000895,None,238.37133190000895,None,238.37133190000895,None,239.38361830002395,None,239.38361830002395,None,239.38361830002395,None,0.3,0.44999999999999996,239.58777770004235,239.6710608000285,239.58777770004235,239.6710608000285,239.58777770004235,239.6710608000285,space,0.22220680001191795,239.58777770004235,None,239.83867680002004,None,,,4,001,2020_Apr_15_1931,experiment,2020.1.3,59.83942687832134,
images/light_grey_box_with_cue,images/light_grey_box,images/light_grey_box,images/light_grey_box,images/light_grey_box,images/light_grey_box,0,0.3,0.45,0,61,61,89,,,,,,,,,,,,,240.3543820999912,None,240.3543820999912,None,240.3543820999912,None,241.3662962000235,None,241.3662962000235,None,241.3662962000235,None,0.05,0.2,241.60402590001468,241.7205751000438,241.60402590001468,241.7205751000438,241.60402590001468,241.7205751000438,space,0.1398050999850966,241.60402590001468,None,241.77126609999686,None,,,4,001,2020_Apr_15_1931,experiment,2020.1.3,59.83942687832134,
images/light_grey_box_with_cue,images/light_grey_box,images/light_grey_box,images/light_grey_box,images/light_grey_box,images/light_grey_box_with_target,0,0.3,0.45,0,62,62,87,,,,,,,,,,,,,242.270511300012,None,242.270511300012,None,242.270511300012,None,243.28329380002106,None,243.28329380002106,None,243.28329380002106,None,0.3,0.44999999999999996,243.48711039999034,243.62021359999198,243.48711039999034,243.62021359999198,243.48711039999034,243.62021359999198,space,0.17047750001074746,243.48711039999034,None,243.68772490002448,None,,,4,001,2020_Apr_15_1931,experiment,2020.1.3,59.83942687832134,
images/light_grey_box,images/light_grey_box,images/light_grey_box_with_cue,images/light_grey_box,images/light_grey_box_with_target,images/light_grey_box,0,0.0,0.15,0,63,63,14,,,,,,,,,,,,,244.20361160003813,None,244.20361160003813,None,244.20361160003813,None,245.2181029000203,None,245.2181029000203,None,245.2181029000203,None,0.3,0.44999999999999996,245.40329650003696,245.5031394000398,245.40329650003696,245.5031394000398,245.40329650003696,245.5031394000398,space,0.18008749996079132,245.40329650003696,None,245.60412710002856,None,,,4,001,2020_Apr_15_1931,experiment,2020.1.3,59.83942687832134,
images/light_grey_box,images/light_grey_box,images/light_grey_box_with_cue,images/light_grey_box,images/light_grey_box_with_target,images/light_grey_box,0,0.3,0.45,0,64,64,92,,,,,,,,,,,,,246.11978260002797,None,246.11978260002797,None,246.11978260002797,None,247.13169390003895,None,247.13169390003895,None,247.13169390003895,None,0.0,0.15,247.28310390003026,247.41949840000598,247.28310390003026,247.41949840000598,247.28310390003026,247.41949840000598,space,0.27202490001218393,247.28310390003026,None,247.5869965000311,None,,,4,001,2020_Apr_15_1931,experiment,2020.1.3,59.83942687832134,
images/light_grey_box_with_cue,images/light_grey_box,images/light_grey_box,images/light_grey_box_with_target,images/light_grey_box,images/light_grey_box,0,0.0,0.15,0,65,65,6,,,,,,,,,,,,,248.1026855999953,None,248.1026855999953,None,248.1026855999953,None,249.1150071999873,None,249.1150071999873,None,249.1150071999873,None,0.2,0.35,249.28574840002693,249.50234930001898,249.28574840002693,249.50234930001898,249.28574840002693,249.50234930001898,space,0.20167540002148598,249.28574840002693,None,249.5198808000423,None,,,4,001,2020_Apr_15_1931,experiment,2020.1.3,59.83942687832134,
images/light_grey_box,images/light_grey_box,images/light_grey_box_with_cue,images/light_grey_box,images/light_grey_box_with_target,images/light_grey_box,0,0.2,0.35,0,66,66,70,,,,,,,,,,,,,250.03557080001337,None,250.03557080001337,None,250.03557080001337,None,251.05117049999535,None,251.05117049999535,None,251.05117049999535,None,0.2,0.35,251.23562460002722,251.368651900033,251.23562460002722,251.368651900033,251.23562460002722,251.368651900033,space,0.1911553000099957,251.23562460002722,None,251.4530267000082,None,,,4,001,2020_Apr_15_1931,experiment,2020.1.3,59.83942687832134,
images/light_grey_box,images/light_grey_box,images/light_grey_box_with_cue,images/light_grey_box,images/light_grey_box,images/light_grey_box,0,0.05,0.2,0,67,67,38,,,,,,,,,,,,,251.96861050004372,None,251.96861050004372,None,251.96861050004372,None,252.99136280000675,None,252.99136280000675,None,252.99136280000675,None,0.3,0.44999999999999996,253.13743070000783,253.35363239998696,253.13743070000783,253.35363239998696,253.13743070000783,253.35363239998696,space,0.24862500000745058,253.13743070000783,None,253.4052321999916,None,,,4,001,2020_Apr_15_1931,experiment,2020.1.3,59.83942687832134,
images/light_grey_box_with_cue,images/light_grey_box,images/light_grey_box,images/light_grey_box,images/light_grey_box,images/light_grey_box_with_target,0,0.0,0.15,0,68,68,7,,,,,,,,,,,,,253.91934060002677,None,253.91934060002677,None,253.91934060002677,None,254.9422663000296,None,254.9422663000296,None,254.9422663000296,None,0.2,0.35,255.0999739000108,255.25115870003356,255.0999739000108,255.25115870003356,255.0999739000108,255.25115870003356,space,0.294329900003504,255.0999739000108,None,255.419265500037,None,,,4,001,2020_Apr_15_1931,experiment,2020.1.3,59.83942687832134,
images/light_grey_box,images/light_grey_box,images/light_grey_box_with_cue,images/light_grey_box,images/light_grey_box,images/light_grey_box,0,0.5,0.65,0,69,69,119,,,,,,,,,,,,,255.92211760004284,None,255.92211760004284,None,255.92211760004284,None,256.96509150002385,None,256.96509150002385,None,256.96509150002385,None,0.2,0.35,257.1681481000269,None,257.1681481000269,None,257.1681481000269,None,space,0.09792500000912696,257.1681481000269,None,257.2870936000254,None,,,4,001,2020_Apr_15_1931,experiment,2020.1.3,59.83942687832134,
images/light_grey_box,images/light_grey_box,images/light_grey_box,images/light_grey_box,images/light_grey_box_with_target,images/light_grey_box,0,0.05,0.2,0,70,70,35,,,,,,,,,,,,,257.8009601000231,None,257.8009601000231,None,257.8009601000231,None,258.8175431000418,None,258.8175431000418,None,258.8175431000418,None,0.1,0.25,259.0176439000061,259.184184200014,259.0176439000061,259.184184200014,259.0176439000061,259.184184200014,space,2.784215099993162,259.0176439000061,None,261.82004980003694,None,,,4,001,2020_Apr_15_1931,experiment,2020.1.3,59.83942687832134,
images/light_grey_box_with_cue,images/light_grey_box,images/light_grey_box,images/light_grey_box,images/light_grey_box,images/light_grey_box,0,0.0,0.15,0,71,71,9,,,,,,,,,,,,,262.33324690000154,None,262.33324690000154,None,262.33324690000154,None,263.34962090000045,None,263.34962090000045,None,263.34962090000045,None,0.2,0.35,263.5664756000042,263.71630750002805,263.5664756000042,263.71630750002805,263.5664756000042,263.71630750002805,space,0.2744946999591775,263.5664756000042,None,263.87035310000647,None,,,4,001,2020_Apr_15_1931,experiment,2020.1.3,59.83942687832134,
images/light_grey_box_with_cue,images/light_grey_box,images/light_grey_box,images/light_grey_box,images/light_grey_box_with_target,images/light_grey_box,0,0.05,0.2,0,72,72,23,,,,,,,,,,,,,264.38332800002536,None,264.38332800002536,None,264.38332800002536,None,265.4034679000033,None,265.4034679000033,None,265.4034679000033,None,0.0,0.15,265.59912030003034,265.7157303999993,265.59912030003034,265.7157303999993,265.59912030003034,265.7157303999993,space,0.6015363000333309,265.59912030003034,None,266.21941770002013,None,,,4,001,2020_Apr_15_1931,experiment,2020.1.3,59.83942687832134,
images/light_grey_box,images/light_grey_box,images/light_grey_box_with_cue,images/light_grey_box,images/light_grey_box,images/light_grey_box_with_target,0,0.05,0.2,0,73,73,37,,,,,,,,,,,,,266.7337729000137,None,266.7337729000137,None,266.7337729000137,None,267.75419100001454,None,267.75419100001454,None,267.75419100001454,None,0.05,0.2,267.9686292000115,268.09880850004265,267.9686292000115,268.09880850004265,267.9686292000115,268.09880850004265,space,0.18033559998730198,267.9686292000115,None,268.1668677999987,None,,,4,001,2020_Apr_15_1931,experiment,2020.1.3,59.83942687832134,
images/light_grey_box,images/light_grey_box,images/light_grey_box_with_cue,images/light_grey_box,images/light_grey_box,images/light_grey_box,0,0.0,0.15,0,74,74,19,,,,,,,,,,,,,268.6819420999964,None,268.6819420999964,None,268.6819420999964,None,269.6986816000426,None,269.6986816000426,None,269.6986816000426,None,0.5,0.65,269.98180489998776,269.9981587000075,269.98180489998776,269.9981587000075,269.98180489998776,269.9981587000075,space,0.06671809998806566,269.98180489998776,None,270.06627290003235,None,,,4,001,2020_Apr_15_1931,experiment,2020.1.3,59.83942687832134,
images/light_grey_box_with_cue,images/light_grey_box,images/light_grey_box,images/light_grey_box,images/light_grey_box_with_target,images/light_grey_box,0,0.05,0.2,0,75,75,20,,,,,,,,,,,,,270.5817773999879,None,270.5817773999879,None,270.5817773999879,None,271.60511210002005,None,271.60511210002005,None,271.60511210002005,None,0.0,0.15,271.84795960003976,271.9313671000418,271.84795960003976,271.9313671000418,271.84795960003976,271.9313671000418,space,1.6381923999870196,271.84795960003976,None,273.5160856000148,None,,,4,001,2020_Apr_15_1931,experiment,2020.1.3,59.83942687832134,
images/light_grey_box_with_cue,images/light_grey_box,images/light_grey_box,images/light_grey_box,images/light_grey_box_with_target,images/light_grey_box,0,0.3,0.45,0,76,76,84,,,,,,,,,,,,,274.03080020000925,None,274.03080020000925,None,274.03080020000925,None,275.0662207000423,None,275.0662207000423,None,275.0662207000423,None,0.2,0.35,275.3009585000109,275.37973330001114,275.3009585000109,275.37973330001114,275.3009585000109,275.37973330001114,space,0.49875929998233914,275.3009585000109,None,275.8185663000331,None,,,4,001,2020_Apr_15_1931,experiment,2020.1.3,59.83942687832134,
images/light_grey_box,images/light_grey_box,images/light_grey_box_with_cue,images/light_grey_box,images/light_grey_box_with_target,images/light_grey_box,0,0.05,0.2,0,77,77,31,,,,,,,,,,,,,276.3312923000194,None,276.3312923000194,None,276.3312923000194,None,277.35636460001115,None,277.35636460001115,None,277.35636460001115,None,0.2,0.35,277.58171440003207,277.7637868000311,277.58171440003207,277.7637868000311,277.58171440003207,277.7637868000311,space,0.24953579995781183,277.58171440003207,None,277.8479359000339,None,,,4,001,2020_Apr_15_1931,experiment,2020.1.3,59.83942687832134,
images/light_grey_box,images/light_grey_box,images/light_grey_box,images/light_grey_box,images/light_grey_box_with_target,images/light_grey_box,0,0.2,0.35,0,78,78,76,,,,,,,,,,,,,278.36363480001455,None,278.36363480001455,None,278.36363480001455,None,279.3854164000368,None,279.3854164000368,None,279.3854164000368,None,0.1,0.25,279.5804247999913,279.7133528999984,279.5804247999913,279.7133528999984,279.5804247999913,279.7133528999984,space,1.8013059999793768,279.5804247999913,None,281.39997389999917,None,,,4,001,2020_Apr_15_1931,experiment,2020.1.3,59.83942687832134,
images/light_grey_box,images/light_grey_box,images/light_grey_box_with_cue,images/light_grey_box,images/light_grey_box,images/light_grey_box_with_target,0,0.0,0.15,0,79,79,17,,,,,,,,,,,,,281.912725400005,None,281.912725400005,None,281.912725400005,None,282.93753350002225,None,282.93753350002225,None,282.93753350002225,None,0.0,0.15,283.1136617999873,283.24840410001343,283.1136617999873,283.24840410001343,283.1136617999873,283.24840410001343,space,0.35762819997034967,283.1136617999873,None,283.49944879999384,None,,,4,001,2020_Apr_15_1931,experiment,2020.1.3,59.83942687832134,
images/light_grey_box,images/light_grey_box,images/light_grey_box,images/light_grey_box,images/light_grey_box_with_target,images/light_grey_box,0,0.1,0.25,0,80,80,56,,,,,,,,,,,,,284.0134347000276,None,284.0134347000276,None,284.0134347000276,None,285.0404333000188,None,285.0404333000188,None,285.0404333000188,None,0.3,0.44999999999999996,285.21095700003207,285.36489920003805,285.21095700003207,285.36489920003805,285.21095700003207,285.36489920003805,space,0.27064980001887307,285.21095700003207,None,285.5120993999881,None,,,4,001,2020_Apr_15_1931,experiment,2020.1.3,59.83942687832134,
images/light_grey_box,images/light_grey_box,images/light_grey_box_with_cue,images/light_grey_box,images/light_grey_box_with_target,images/light_grey_box,0,0.2,0.35,0,81,81,72,,,,,,,,,,,,,286.0142075000331,None,286.0142075000331,None,286.0142075000331,None,287.0540792000247,None,287.0540792000247,None,287.0540792000247,None,0.3,0.44999999999999996,287.2452978999936,287.39727310003946,287.2452978999936,287.39727310003946,287.2452978999936,287.39727310003946,space,0.18356589996255934,287.2452978999936,None,287.44816790003097,None,,,4,001,2020_Apr_15_1931,experiment,2020.1.3,59.83942687832134,
images/light_grey_box_with_cue,images/light_grey_box,images/light_grey_box,images/light_grey_box_with_target,images/light_grey_box,images/light_grey_box,0,0.05,0.2,0,82,82,26,,,,,,,,,,,,,287.9623050999944,None,287.9623050999944,None,287.9623050999944,None,288.9810356000089,None,288.9810356000089,None,288.9810356000089,None,0.05,0.2,289.14434040000197,289.2764858000446,289.14434040000197,289.2764858000446,289.14434040000197,289.2764858000446,space,1.2257466000155546,289.14434040000197,None,290.3981428000261,None,,,4,001,2020_Apr_15_1931,experiment,2020.1.3,59.83942687832134,
images/light_grey_box,images/light_grey_box,images/light_grey_box,images/light_grey_box,images/light_grey_box_with_target,images/light_grey_box,0,0.3,0.45,0,83,83,95,,,,,,,,,,,,,290.91145650000544,None,290.91145650000544,None,290.91145650000544,None,291.9430386000313,None,291.9430386000313,None,291.9430386000313,None,0.1,0.25,292.17929570004344,292.3467479000101,292.17929570004344,292.3467479000101,292.17929570004344,292.3467479000101,space,1.4894704000325873,292.17929570004344,None,293.6940439000027,None,,,4,001,2020_Apr_15_1931,experiment,2020.1.3,59.83942687832134,
images/light_grey_box,images/light_grey_box,images/light_grey_box_with_cue,images/light_grey_box,images/light_grey_box_with_target,images/light_grey_box,0,0.5,0.65,0,84,84,111,,,,,,,,,,,,,294.1940067000105,None,294.1940067000105,None,294.1940067000105,None,295.22377310000593,None,295.22377310000593,None,295.22377310000593,None,0.3,0.44999999999999996,295.4087935000425,295.64502530003665,295.4087935000425,295.64502530003665,295.4087935000425,295.64502530003665,space,0.22674840001855046,295.4087935000425,None,295.6739265000215,None,,,4,001,2020_Apr_15_1931,experiment,2020.1.3,59.83942687832134,
images/light_grey_box_with_cue,images/light_grey_box,images/light_grey_box,images/light_grey_box,images/light_grey_box_with_target,images/light_grey_box,0,0.1,0.25,0,85,85,45,,,,,,,,,,,,,296.17677800002275,None,296.17677800002275,None,296.17677800002275,None,297.19288909999887,None,297.19288909999887,None,297.19288909999887,None,0.2,0.35,297.3420191000332,297.492808400013,297.3420191000332,297.492808400013,297.3420191000332,297.492808400013,space,0.4105886000324972,297.3420191000332,None,297.777561600029,None,,,4,001,2020_Apr_15_1931,experiment,2020.1.3,59.83942687832134,
images/light_grey_box_with_cue,images/light_grey_box,images/light_grey_box,images/light_grey_box,images/light_grey_box,images/light_grey_box,0,0.5,0.65,0,86,86,108,,,,,,,,,,,,,298.2926187000121,None,298.2926187000121,None,298.2926187000121,None,299.3082158000325,None,299.3082158000325,None,299.3082158000325,None,0.5,0.65,299.52585080004064,299.6090317000053,299.52585080004064,299.6090317000053,299.52585080004064,299.6090317000053,space,5.489180899981875,299.52585080004064,None,305.042592599988,None,,,4,001,2020_Apr_15_1931,experiment,2020.1.3,59.83942687832134,
images/light_grey_box,images/light_grey_box,images/light_grey_box,images/light_grey_box,images/light_grey_box_with_target,images/light_grey_box,0,0.3,0.45,0,87,87,94,,,,,,,,,,,,,305.5582785999868,None,305.5582785999868,None,305.5582785999868,None,306.57370820001233,None,306.57370820001233,None,306.57370820001233,None,0.0,0.15,306.79093220003415,306.87415700004203,306.79093220003415,306.87415700004203,306.79093220003415,306.87415700004203,space,0.7421170999878086,306.79093220003415,None,307.5595275000087,None,,,4,001,2020_Apr_15_1931,experiment,2020.1.3,59.83942687832134,
images/light_grey_box_with_cue,images/light_grey_box,images/light_grey_box,images/light_grey_box,images/light_grey_box_with_target,images/light_grey_box,0,0.3,0.45,0,88,88,83,,,,,,,,,,,,,308.07447920000413,None,308.07447920000413,None,308.07447920000413,None,309.09173829999054,None,309.09173829999054,None,309.09173829999054,None,0.2,0.35,309.3404703999986,309.3903191999998,309.3404703999986,309.3903191999998,309.3404703999986,309.3903191999998,space,0.41641360003268346,309.3404703999986,None,309.77451419999124,None,,,4,001,2020_Apr_15_1931,experiment,2020.1.3,59.83942687832134,
images/light_grey_box,images/light_grey_box,images/light_grey_box,images/light_grey_box,images/light_grey_box_with_target,images/light_grey_box,0,0.5,0.65,0,89,89,113,,,,,,,,,,,,,310.29034050001064,None,310.29034050001064,None,310.29034050001064,None,311.3041998000117,None,311.3041998000117,None,311.3041998000117,None,0.05,0.2,311.45625680004014,311.5906254000147,311.45625680004014,311.5906254000147,311.45625680004014,311.5906254000147,space,0.6645851000212133,311.45625680004014,None,312.14064300002065,None,,,4,001,2020_Apr_15_1931,experiment,2020.1.3,59.83942687832134,
images/light_grey_box,images/light_grey_box,images/light_grey_box_with_cue,images/light_grey_box,images/light_grey_box_with_target,images/light_grey_box,0,0.2,0.35,0,90,90,71,,,,,,,,,,,,,312.6564192000078,None,312.6564192000078,None,312.6564192000078,None,313.6726884000236,None,313.6726884000236,None,313.6726884000236,None,0.3,0.44999999999999996,313.85644639999373,314.0060343000223,313.85644639999373,314.0060343000223,313.85644639999373,314.0060343000223,space,2.1586027999874204,313.85644639999373,None,316.0404513000394,None,,,4,001,2020_Apr_15_1931,experiment,2020.1.3,59.83942687832134,
images/light_grey_box,images/light_grey_box,images/light_grey_box_with_cue,images/light_grey_box,images/light_grey_box,images/light_grey_box,0,0.0,0.15,0,91,91,18,,,,,,,,,,,,,316.55566020001424,None,316.55566020001424,None,316.55566020001424,None,317.5728578999988,None,317.5728578999988,None,317.5728578999988,None,0.1,0.25,317.8222010000027,317.87261600000784,317.8222010000027,317.87261600000784,317.8222010000027,317.87261600000784,space,0.11561140004778281,317.8222010000027,None,317.95798559999093,None,,,4,001,2020_Apr_15_1931,experiment,2020.1.3,59.83942687832134,
images/light_grey_box_with_cue,images/light_grey_box,images/light_grey_box,images/light_grey_box,images/light_grey_box,images/light_grey_box,0,0.2,0.35,0,92,92,69,,,,,,,,,,,,,318.4722064000089,None,318.4722064000089,None,318.4722064000089,None,319.48995740001556,None,319.48995740001556,None,319.48995740001556,None,0.2,0.35,319.72166310000466,319.7715950999991,319.72166310000466,319.7715950999991,319.72166310000466,319.7715950999991,space,0.8230345000047237,319.72166310000466,None,320.5730972000165,None,,,4,001,2020_Apr_15_1931,experiment,2020.1.3,59.83942687832134,
images/light_grey_box_with_cue,images/light_grey_box,images/light_grey_box,images/light_grey_box,images/light_grey_box_with_target,images/light_grey_box,0,0.3,0.45,0,93,93,80,,,,,,,,,,,,,321.08898050000425,None,321.08898050000425,None,321.08898050000425,None,322.1050721000065,None,322.1050721000065,None,322.1050721000065,None,0.5,0.65,322.2881805000361,322.404548600025,322.2881805000361,322.404548600025,322.2881805000361,322.404548600025,space,0.5632162999827415,322.2881805000361,None,322.8718891000026,None,,,4,001,2020_Apr_15_1931,experiment,2020.1.3,59.83942687832134,
images/light_grey_box_with_cue,images/light_grey_box,images/light_grey_box,images/light_grey_box,images/light_grey_box_with_target,images/light_grey_box,0,0.05,0.2,0,94,94,21,,,,,,,,,,,,,323.3712458999944,None,323.3712458999944,None,323.3712458999944,None,324.3888739999966,None,324.3888739999966,None,324.3888739999966,None,0.05,0.2,324.6039358000271,324.78729270002805,324.6039358000271,324.78729270002805,324.6039358000271,324.78729270002805,space,0.33983770001214,324.6039358000271,None,324.97554760001367,None,,,4,001,2020_Apr_15_1931,experiment,2020.1.3,59.83942687832134,
images/light_grey_box_with_cue,images/light_grey_box,images/light_grey_box,images/light_grey_box,images/light_grey_box,images/light_grey_box,0,0.0,0.15,0,95,95,8,,,,,,,,,,,,,325.4895770000294,None,325.4895770000294,None,325.4895770000294,None,326.5039970999933,None,326.5039970999933,None,326.5039970999933,None,0.2,0.35,326.75360580004053,326.8201529000071,326.75360580004053,326.8201529000071,326.75360580004053,326.8201529000071,space,0.3246878999634646,326.75360580004053,None,327.1048964000074,None,,,4,001,2020_Apr_15_1931,experiment,2020.1.3,59.83942687832134,
images/light_grey_box,images/light_grey_box,images/light_grey_box_with_cue,images/light_grey_box,images/light_grey_box_with_target,images/light_grey_box,0,0.5,0.65,0,96,96,110,,,,,,,,,,,,,327.6201575000305,None,327.6201575000305,None,327.6201575000305,None,328.6365540000261,None,328.6365540000261,None,328.6365540000261,None,0.2,0.35,328.83646830002544,329.0199188000406,328.83646830002544,329.0199188000406,328.83646830002544,329.0199188000406,space,1.661879700026475,328.83646830002544,None,330.52085760002956,None,,,4,001,2020_Apr_15_1931,experiment,2020.1.3,59.83942687832134,
images/light_grey_box,images/light_grey_box,images/light_grey_box_with_cue,images/light_grey_box_with_target,images/light_grey_box,images/light_grey_box,0,0.0,0.15,0,97,97,16,,,,,,,,,,,,,331.03601660003187,None,331.03601660003187,None,331.03601660003187,None,332.05264840001473,None,332.05264840001473,None,332.05264840001473,None,0.05,0.2,332.2525370999938,332.4023409000365,332.2525370999938,332.4023409000365,332.2525370999938,332.4023409000365,space,0.5290456999791786,332.2525370999938,None,332.8030060000019,None,,,4,001,2020_Apr_15_1931,experiment,2020.1.3,59.83942687832134,
images/light_grey_box,images/light_grey_box,images/light_grey_box_with_cue,images/light_grey_box,images/light_grey_box_with_target,images/light_grey_box,0,0.0,0.15,0,98,98,13,,,,,,,,,,,,,333.3023722000071,None,333.3023722000071,None,333.3023722000071,None,334.3206274000113,None,334.3206274000113,None,334.3206274000113,None,0.0,0.15,334.5021022000001,334.65195120003773,334.5021022000001,334.65195120003773,334.5021022000001,334.65195120003773,space,0.6572378000128083,334.5021022000001,None,335.1860180000076,None,,,4,001,2020_Apr_15_1931,experiment,2020.1.3,59.83942687832134,
images/light_grey_box,images/light_grey_box,images/light_grey_box,images/light_grey_box,images/light_grey_box_with_target,images/light_grey_box,0,0.05,0.2,0,99,99,36,,,,,,,,,,,,,335.685136199987,None,335.685136199987,None,335.685136199987,None,336.7077938000439,None,336.7077938000439,None,336.7077938000439,None,0.2,0.35,337.01824599999236,337.03469350002706,337.01824599999236,337.03469350002706,337.01824599999236,337.03469350002706,space,1.1840013999608345,337.01824599999236,None,338.2209036000422,None,,,4,001,2020_Apr_15_1931,experiment,2020.1.3,59.83942687832134,
images/light_grey_box,images/light_grey_box,images/light_grey_box,images/light_grey_box,images/light_grey_box_with_target,images/light_grey_box,0,0.2,0.35,0,100,100,73,,,,,,,,,,,,,338.73475910001434,None,338.73475910001434,None,338.73475910001434,None,339.7495543000405,None,339.7495543000405,None,339.7495543000405,None,0.1,0.25,339.967556299991,340.034274500038,339.967556299991,340.034274500038,339.967556299991,340.034274500038,space,0.34040540002752095,339.967556299991,None,340.335039800033,None,,,4,001,2020_Apr_15_1931,experiment,2020.1.3,59.83942687832134,
images/light_grey_box_with_cue,images/light_grey_box,images/light_grey_box,images/light_grey_box,images/light_grey_box,images/light_grey_box_with_target,0,0.2,0.35,0,101,101,67,,,,,,,,,,,,,340.8345391000039,None,340.8345391000039,None,340.8345391000039,None,341.85285580001073,None,341.85285580001073,None,341.85285580001073,None,0.2,0.35,342.0505156000145,342.2339339000173,342.0505156000145,342.2339339000173,342.0505156000145,342.2339339000173,space,0.5039116999832913,342.0505156000145,None,342.58506810001563,None,,,4,001,2020_Apr_15_1931,experiment,2020.1.3,59.83942687832134,
images/light_grey_box_with_cue,images/light_grey_box,images/light_grey_box,images/light_grey_box,images/light_grey_box_with_target,images/light_grey_box,0,0.0,0.15,0,102,102,1,,,,,,,,,,,,,343.10040100000333,None,343.10040100000333,None,343.10040100000333,None,344.12489040003857,None,344.12489040003857,None,344.12489040003857,None,0.5,0.65,344.3499867999926,344.45030680001946,344.3499867999926,344.45030680001946,344.3499867999926,344.45030680001946,space,0.3755064000142738,344.3499867999926,None,344.7517177000409,None,,,4,001,2020_Apr_15_1931,experiment,2020.1.3,59.83942687832134,
images/light_grey_box_with_cue,images/light_grey_box,images/light_grey_box,images/light_grey_box,images/light_grey_box,images/light_grey_box,0,0.3,0.45,0,103,103,88,,,,,,,,,,,,,345.26662800001213,None,345.26662800001213,None,345.26662800001213,None,346.28418690001126,None,346.28418690001126,None,346.28418690001126,None,0.1,0.25,346.43095260002883,346.56672930001514,346.43095260002883,346.56672930001514,346.43095260002883,346.56672930001514,space,1.798818700015545,346.43095260002883,None,348.2500872000237,None,,,4,001,2020_Apr_15_1931,experiment,2020.1.3,59.83942687832134,
images/light_grey_box,images/light_grey_box,images/light_grey_box_with_cue,images/light_grey_box,images/light_grey_box_with_target,images/light_grey_box,0,0.1,0.25,0,104,104,52,,,,,,,,,,,,,348.76572110003326,None,348.76572110003326,None,348.76572110003326,None,349.78223150002304,None,349.78223150002304,None,349.78223150002304,None,0.3,0.44999999999999996,349.9823180999956,350.0989491000073,349.9823180999956,350.0989491000073,349.9823180999956,350.0989491000073,space,0.44473570003174245,349.9823180999956,None,350.4496819000342,None,,,4,001,2020_Apr_15_1931,experiment,2020.1.3,59.83942687832134,
images/light_grey_box_with_cue,images/light_grey_box,images/light_grey_box,images/light_grey_box,images/light_grey_box_with_target,images/light_grey_box,0,0.0,0.15,0,105,105,0,,,,,,,,,,,,,350.9489836000139,None,350.9489836000139,None,350.9489836000139,None,351.96941510000033,None,351.96941510000033,None,351.96941510000033,None,0.5,0.65,352.198489100032,352.28174790000776,352.198489100032,352.28174790000776,352.198489100032,352.28174790000776,space,0.36077949998434633,352.198489100032,None,352.58250120002776,None,,,4,001,2020_Apr_15_1931,experiment,2020.1.3,59.83942687832134,
images/light_grey_box_with_cue,images/light_grey_box,images/light_grey_box,images/light_grey_box,images/light_grey_box,images/light_grey_box_with_target,0,0.05,0.2,0,106,106,27,,,,,,,,,,,,,353.0819327000063,None,353.0819327000063,None,353.0819327000063,None,354.10021340003004,None,354.10021340003004,None,354.10021340003004,None,0.0,0.15,354.29798580001807,354.44790170004126,354.29798580001807,354.44790170004126,354.29798580001807,354.44790170004126,space,0.5465618000016548,354.29798580001807,None,354.8653378000017,None,,,4,001,2020_Apr_15_1931,experiment,2020.1.3,59.83942687832134,
images/light_grey_box_with_cue,images/light_grey_box,images/light_grey_box,images/light_grey_box,images/light_grey_box_with_target,images/light_grey_box,0,0.5,0.65,0,107,107,101,,,,,,,,,,,,,355.36462880001636,None,355.36462880001636,None,355.36462880001636,None,356.38328900001943,None,356.38328900001943,None,356.38328900001943,None,0.05,0.2,356.58082420000574,356.71437270002207,356.58082420000574,356.71437270002207,356.58082420000574,356.71437270002207,space,0.3960204000468366,356.58082420000574,None,356.99882680003066,None,,,4,001,2020_Apr_15_1931,experiment,2020.1.3,59.83942687832134,
images/light_grey_box_with_cue,images/light_grey_box,images/light_grey_box,images/light_grey_box,images/light_grey_box_with_target,images/light_grey_box,0,0.5,0.65,0,108,108,103,,,,,,,,,,,,,357.5141014000401,None,357.5141014000401,None,357.5141014000401,None,358.5315768000437,None,358.5315768000437,None,358.5315768000437,None,0.5,0.65,358.71434120001504,358.8140521000023,358.71434120001504,358.8140521000023,358.71434120001504,358.8140521000023,space,0.45110559999011457,358.71434120001504,None,359.18186250003055,None,,,4,001,2020_Apr_15_1931,experiment,2020.1.3,59.83942687832134,
images/light_grey_box_with_cue,images/light_grey_box,images/light_grey_box,images/light_grey_box,images/light_grey_box_with_target,images/light_grey_box,0,0.1,0.25,0,109,109,44,,,,,,,,,,,,,359.69701659999555,None,359.69701659999555,None,359.69701659999555,None,360.71294560004026,None,360.71294560004026,None,360.71294560004026,None,0.05,0.2,360.8800583000411,361.04671650001546,360.8800583000411,361.04671650001546,360.8800583000411,361.04671650001546,space,0.3833359999698587,360.8800583000411,None,361.2807867000229,None,,,4,001,2020_Apr_15_1931,experiment,2020.1.3,59.83942687832134,
images/light_grey_box_with_cue,images/light_grey_box,images/light_grey_box,images/light_grey_box,images/light_grey_box_with_target,images/light_grey_box,0,0.0,0.15,0,110,110,5,,,,,,,,,,,,,361.7966111000278,None,361.7966111000278,None,361.7966111000278,None,362.8147732000216,None,362.8147732000216,None,362.8147732000216,None,0.05,0.2,362.9657876000274,363.2303929000045,362.9657876000274,363.2303929000045,362.9657876000274,363.2303929000045,space,0.5782974999747239,362.9657876000274,None,363.56561799999326,None,,,4,001,2020_Apr_15_1931,experiment,2020.1.3,59.83942687832134,
images/light_grey_box_with_cue,images/light_grey_box,images/light_grey_box,images/light_grey_box,images/light_grey_box_with_target,images/light_grey_box,0,0.05,0.2,0,111,111,22,,,,,,,,,,,,,364.07965319999494,None,364.07965319999494,None,364.07965319999494,None,365.0963705999893,None,365.0963705999893,None,365.0963705999893,None,0.2,0.35,365.2961071000318,365.56257930002175,365.2961071000318,365.56257930002175,365.2961071000318,365.56257930002175,space,0.45101670001167804,365.2961071000318,None,365.7639479000354,None,,,4,001,2020_Apr_15_1931,experiment,2020.1.3,59.83942687832134,
images/light_grey_box,images/light_grey_box,images/light_grey_box,images/light_grey_box,images/light_grey_box_with_target,images/light_grey_box,0,0.05,0.2,0,112,112,33,,,,,,,,,,,,,366.27952680003364,None,366.27952680003364,None,366.27952680003364,None,367.2962267000112,None,367.2962267000112,None,367.2962267000112,None,0.2,0.35,367.4621591999894,367.678833700018,367.4621591999894,367.678833700018,367.4621591999894,367.678833700018,space,0.8242115000030026,367.4621591999894,None,368.31316630000947,None,,,4,001,2020_Apr_15_1931,experiment,2020.1.3,59.83942687832134,
images/light_grey_box_with_cue,images/light_grey_box,images/light_grey_box,images/light_grey_box,images/light_grey_box_with_target,images/light_grey_box,0,0.5,0.65,0,113,113,104,,,,,,,,,,,,,368.8287488000351,None,368.8287488000351,None,368.8287488000351,None,369.8458724000375,None,369.8458724000375,None,369.8458724000375,None,0.3,0.44999999999999996,370.02828249998856,370.12845780001953,370.02828249998856,370.12845780001953,370.02828249998856,370.12845780001953,space,0.3893050000187941,370.02828249998856,None,370.4459136000369,None,,,4,001,2020_Apr_15_1931,experiment,2020.1.3,59.83942687832134,
images/light_grey_box_with_cue,images/light_grey_box,images/light_grey_box,images/light_grey_box,images/light_grey_box_with_target,images/light_grey_box,0,0.1,0.25,0,114,114,43,,,,,,,,,,,,,370.96161450003274,None,370.96161450003274,None,370.96161450003274,None,371.9773226000252,None,371.9773226000252,None,371.9773226000252,None,0.05,0.2,372.1610512000043,372.3443469000049,372.1610512000043,372.3443469000049,372.1610512000043,372.3443469000049,space,0.3399347999948077,372.1610512000043,None,372.52845460001845,None,,,4,001,2020_Apr_15_1931,experiment,2020.1.3,59.83942687832134,
images/light_grey_box,images/light_grey_box,images/light_grey_box_with_cue,images/light_grey_box,images/light_grey_box,images/light_grey_box_with_target,0,0.3,0.45,0,115,115,97,,,,,,,,,,,,,373.0276803000015,None,373.0276803000015,None,373.0276803000015,None,374.05099560000235,None,374.05099560000235,None,374.05099560000235,None,0.3,0.44999999999999996,374.3274045000435,374.3940547000384,374.3274045000435,374.3940547000384,374.3274045000435,374.3940547000384,space,0.41751210001530126,374.3274045000435,None,374.76119079999626,None,,,4,001,2020_Apr_15_1931,experiment,2020.1.3,59.83942687832134,
images/light_grey_box_with_cue,images/light_grey_box,images/light_grey_box,images/light_grey_box,images/light_grey_box_with_target,images/light_grey_box,0,0.05,0.2,0,116,116,25,,,,,,,,,,,,,375.260770199995,None,375.260770199995,None,375.260770199995,None,376.27982789999805,None,376.27982789999805,None,376.27982789999805,None,0.3,0.44999999999999996,376.5104177999892,376.66027930000564,376.5104177999892,376.66027930000564,376.5104177999892,376.66027930000564,space,0.38359859999036416,376.5104177999892,None,376.9124121000059,None,,,4,001,2020_Apr_15_1931,experiment,2020.1.3,59.83942687832134,
images/light_grey_box,images/light_grey_box,images/light_grey_box_with_cue,images/light_grey_box,images/light_grey_box,images/light_grey_box,0,0.1,0.25,0,117,117,58,,,,,,,,,,,,,377.42677459999686,None,377.42677459999686,None,377.42677459999686,None,378.44329980004113,None,378.44329980004113,None,378.44329980004113,None,0.1,0.25,378.6598225000198,378.79316729999846,378.6598225000198,378.79316729999846,378.6598225000198,378.79316729999846,space,2.391354900028091,378.6598225000198,None,381.077489599993,None,,,4,001,2020_Apr_15_1931,experiment,2020.1.3,59.83942687832134,
images/light_grey_box_with_cue,images/light_grey_box,images/light_grey_box,images/light_grey_box,images/light_grey_box,images/light_grey_box_with_target,0,0.5,0.65,0,118,118,107,,,,,,,,,,,,,381.5926577000064,None,381.5926577000064,None,381.5926577000064,None,382.6092738000443,None,382.6092738000443,None,382.6092738000443,None,0.1,0.25,382.8092693000217,382.9605232999893,382.8092693000217,382.9605232999893,382.8092693000217,382.9605232999893,space,0.3836423000320792,382.8092693000217,None,383.21026000002166,None,,,4,001,2020_Apr_15_1931,experiment,2020.1.3,59.83942687832134,
images/light_grey_box,images/light_grey_box,images/light_grey_box_with_cue,images/light_grey_box,images/light_grey_box_with_target,images/light_grey_box,0,0.0,0.15,0,119,119,12,,,,,,,,,,,,,383.72551300004125,None,383.72551300004125,None,383.72551300004125,None,384.74216620001243,None,384.74216620001243,None,384.74216620001243,None,0.5,0.65,384.8912891999935,385.0750216000015,384.8912891999935,385.0750216000015,384.8912891999935,385.0750216000015,space,0.46481500001391396,384.8912891999935,None,385.37645030004205,None,,,4,001,2020_Apr_15_1931,experiment,2020.1.3,59.83942687832134,
,,,,,,,,,,,,,,,,,,,,,,,,,,,,,,,,,,,,,,,,,,,,,,,,,,,385.89165880001383,None,,,,,,,
