image_cue_1,image_cue_2,image_cue_3,image_target_1,image_target_2,image_target_3,targetStart,startTime,endTime,trials.thisRepN,trials.thisTrialN,trials.thisN,trials.thisIndex,textWelcome.started,textWelcome.stopped,keyWelcome.keys,keyWelcome.rt,keyWelcome.started,keyWelcome.stopped,textStart.started,textStart.stopped,keyStart.keys,keyStart.rt,keyStart.started,keyStart.stopped,imageTrailBefore_1.started,imageTrailBefore_1.stopped,imageTrialBefore_2.started,imageTrialBefore_2.stopped,imageTrialBefore_3.started,imageTrialBefore_3.stopped,imageTrialCue_1.started,imageTrialCue_1.stopped,imageTrialCue_2.started,imageTrialCue_2.stopped,imageTrialCue_3.started,imageTrialCue_3.stopped,TrialSceenTargetStart,TrialSceenTargetEnd,imageTrialTarget_1.started,imageTrialTarget_1.stopped,imageTrialTarget_2.started,imageTrialTarget_2.stopped,imageTrialTarget_3.started,imageTrialTarget_3.stopped,keyResponse.keys,keyResponse.rt,keyResponse.started,keyResponse.stopped,textBlank500.started,textBlank500.stopped,participant,session,date,expName,psychopyVersion,frameRate,
,,,,,,,,,,,,,16.47003859997494,None,space,1.500764700002037,16.47003859997494,None,,,,,,,,,,,,,,,,,,,,,,,,,,,,,,,,,5,001,2020_Apr_15_1939,experiment,2020.1.3,59.95840086580645,
,,,,,,,,,,,,,,,,,,,18.004209899983834,None,space,1.6868315999745391,18.004209899983834,None,,,,,,,,,,,,,,,,,,,,,,,,,,,5,001,2020_Apr_15_1939,experiment,2020.1.3,59.95840086580645,
images/light_grey_box,images/light_grey_box,images/light_grey_box,images/light_grey_box,images/light_grey_box_with_target,images/light_grey_box,0,0.5,0.65,0,0,0,113,,,,,,,,,,,,,19.80772009998327,None,19.80772009998327,None,19.80772009998327,None,20.802571600012016,None,20.802571600012016,None,20.802571600012016,None,0.5,0.65,21.018970599980094,21.06837330001872,21.018970599980094,21.06837330001872,21.018970599980094,21.06837330001872,space,0.21260389999952167,21.018970599980094,None,21.257052099972498,None,5,001,2020_Apr_15_1939,experiment,2020.1.3,59.95840086580645,
images/light_grey_box,images/light_grey_box,images/light_grey_box_with_cue,images/light_grey_box,images/light_grey_box,images/light_grey_box,0,0.1,0.25,0,1,1,59,,,,,,,,,,,,,21.76855759997852,None,21.76855759997852,None,21.76855759997852,None,22.781598099973053,None,22.781598099973053,None,22.781598099973053,None,0.1,0.25,22.950001800025348,23.083457099972293,22.950001800025348,23.083457099972293,22.950001800025348,23.083457099972293,space,0.1504306000424549,22.950001800025348,None,23.117491999990307,None,5,001,2020_Apr_15_1939,experiment,2020.1.3,59.95840086580645,
images/light_grey_box,images/light_grey_box,images/light_grey_box_with_cue,images/light_grey_box,images/light_grey_box_with_target,images/light_grey_box,0,0.0,0.15,0,2,2,15,,,,,,,,,,,,,23.616631100012455,None,23.616631100012455,None,23.616631100012455,None,24.629883699992206,None,24.629883699992206,None,24.629883699992206,None,0.0,0.15,24.814133599982597,24.94993090000935,24.814133599982597,24.94993090000935,24.814133599982597,24.94993090000935,space,0.2115229000337422,24.814133599982597,None,25.05118449998554,None,5,001,2020_Apr_15_1939,experiment,2020.1.3,59.95840086580645,
images/light_grey_box_with_cue,images/light_grey_box,images/light_grey_box,images/light_grey_box,images/light_grey_box_with_target,images/light_grey_box,0,0.05,0.2,0,3,3,21,,,,,,,,,,,,,25.566488299984485,None,25.566488299984485,None,25.566488299984485,None,26.578170099994168,None,26.578170099994168,None,26.578170099994168,None,0.0,0.15,26.74713510001311,None,26.74713510001311,None,26.74713510001311,None,space,0.11214019998442382,26.74713510001311,None,26.883441400015727,None,5,001,2020_Apr_15_1939,experiment,2020.1.3,59.95840086580645,
images/light_grey_box_with_cue,images/light_grey_box,images/light_grey_box,images/light_grey_box,images/light_grey_box_with_target,images/light_grey_box,0,0.2,0.35,0,4,4,62,,,,,,,,,,,,,27.399025199993048,None,27.399025199993048,None,27.399025199993048,None,28.408971900003962,None,28.408971900003962,None,28.408971900003962,None,0.05,0.2,28.579965899989475,None,28.579965899989475,None,28.579965899989475,None,space,0.05634880001889542,28.579965899989475,None,28.666065700002946,None,5,001,2020_Apr_15_1939,experiment,2020.1.3,59.95840086580645,
images/light_grey_box,images/light_grey_box,images/light_grey_box_with_cue,images/light_grey_box,images/light_grey_box,images/light_grey_box,0,0.5,0.65,0,5,5,118,,,,,,,,,,,,,29.165455000009388,None,29.165455000009388,None,29.165455000009388,None,30.175659300002735,None,30.175659300002735,None,30.175659300002735,None,0.5,0.65,30.41536659997655,None,30.41536659997655,None,30.41536659997655,None,space,0.06320139998570085,30.41536659997655,None,30.500464999990072,None,5,001,2020_Apr_15_1939,experiment,2020.1.3,59.95840086580645,
images/light_grey_box_with_cue,images/light_grey_box,images/light_grey_box,images/light_grey_box,images/light_grey_box_with_target,images/light_grey_box,0,0.05,0.2,0,6,6,23,,,,,,,,,,,,,31.015041499980725,None,31.015041499980725,None,31.015041499980725,None,32.03491119999671,None,32.03491119999671,None,32.03491119999671,None,0.2,0.35,32.196320199989714,32.33150159998331,32.196320199989714,32.33150159998331,32.196320199989714,32.33150159998331,space,0.31378219998441637,32.196320199989714,None,32.53236830001697,None,5,001,2020_Apr_15_1939,experiment,2020.1.3,59.95840086580645,
images/light_grey_box_with_cue,images/light_grey_box,images/light_grey_box,images/light_grey_box,images/light_grey_box_with_target,images/light_grey_box,0,0.3,0.45,0,7,7,80,,,,,,,,,,,,,33.03169209999032,None,33.03169209999032,None,33.03169209999032,None,34.04556970001431,None,34.04556970001431,None,34.04556970001431,None,0.05,0.2,34.20768400002271,34.38099640002474,34.20768400002271,34.38099640002474,34.20768400002271,34.38099640002474,space,2.0412296000286005,34.20768400002271,None,36.26592570001958,None,5,001,2020_Apr_15_1939,experiment,2020.1.3,59.95840086580645,
images/light_grey_box_with_cue,images/light_grey_box,images/light_grey_box,images/light_grey_box_with_target,images/light_grey_box,images/light_grey_box,0,0.3,0.45,0,8,8,86,,,,,,,,,,,,,36.780769300006796,None,36.780769300006796,None,36.780769300006796,None,37.792579300003126,None,37.792579300003126,None,37.792579300003126,None,0.2,0.35,37.940300500020385,38.13016970001627,37.940300500020385,38.13016970001627,37.940300500020385,38.13016970001627,space,1.0356270000338554,37.940300500020385,None,38.9983632999938,None,5,001,2020_Apr_15_1939,experiment,2020.1.3,59.95840086580645,
images/light_grey_box_with_cue,images/light_grey_box,images/light_grey_box,images/light_grey_box,images/light_grey_box,images/light_grey_box,0,0.3,0.45,0,9,9,88,,,,,,,,,,,,,39.51338449999457,None,39.51338449999457,None,39.51338449999457,None,40.523569600016344,None,40.523569600016344,None,40.523569600016344,None,0.1,0.25,40.71316739998292,40.81327969999984,40.71316739998292,40.81327969999984,40.71316739998292,40.81327969999984,space,0.6336599999922328,40.71316739998292,None,41.364109400019515,None,5,001,2020_Apr_15_1939,experiment,2020.1.3,59.95840086580645,
images/light_grey_box,images/light_grey_box,images/light_grey_box_with_cue,images/light_grey_box,images/light_grey_box,images/light_grey_box,0,0.05,0.2,0,10,10,39,,,,,,,,,,,,,41.87951729999622,None,41.87951729999622,None,41.87951729999622,None,42.888146399986,None,42.888146399986,None,42.888146399986,None,0.1,0.25,43.06266280001728,43.21268240001518,43.06266280001728,43.21268240001518,43.06266280001728,43.21268240001518,space,0.7513945000246167,43.06266280001728,None,43.831723499984946,None,5,001,2020_Apr_15_1939,experiment,2020.1.3,59.95840086580645,
images/light_grey_box,images/light_grey_box,images/light_grey_box,images/light_grey_box,images/light_grey_box_with_target,images/light_grey_box,0,0.5,0.65,0,11,11,116,,,,,,,,,,,,,44.34641960001318,None,44.34641960001318,None,44.34641960001318,None,45.36548109998694,None,45.36548109998694,None,45.36548109998694,None,0.05,0.2,45.58024350000778,45.663684299972374,45.58024350000778,45.663684299972374,45.58024350000778,45.663684299972374,space,0.6311688999994658,45.58024350000778,None,46.233423799974844,None,5,001,2020_Apr_15_1939,experiment,2020.1.3,59.95840086580645,
images/light_grey_box_with_cue,images/light_grey_box,images/light_grey_box,images/light_grey_box,images/light_grey_box_with_target,images/light_grey_box,0,0.5,0.65,0,12,12,105,,,,,,,,,,,,,46.74568739999086,None,46.74568739999086,None,46.74568739999086,None,47.756700499972794,None,47.756700499972794,None,47.756700499972794,None,0.3,0.44999999999999996,47.90599790000124,48.061628700001165,47.90599790000124,48.061628700001165,47.90599790000124,48.061628700001165,space,0.4307530999649316,47.90599790000124,None,48.36310760001652,None,5,001,2020_Apr_15_1939,experiment,2020.1.3,59.95840086580645,
images/light_grey_box,images/light_grey_box,images/light_grey_box_with_cue,images/light_grey_box,images/light_grey_box,images/light_grey_box,0,0.2,0.35,0,13,13,79,,,,,,,,,,,,,48.87827190000098,None,48.87827190000098,None,48.87827190000098,None,49.89200370002072,None,49.89200370002072,None,49.89200370002072,None,0.3,0.44999999999999996,50.048267400008626,50.22778700001072,50.048267400008626,50.22778700001072,50.048267400008626,50.22778700001072,space,0.8256649999530055,50.048267400008626,None,50.89593739999691,None,5,001,2020_Apr_15_1939,experiment,2020.1.3,59.95840086580645,
images/light_grey_box,images/light_grey_box,images/light_grey_box,images/light_grey_box,images/light_grey_box_with_target,images/light_grey_box,0,0.3,0.45,0,14,14,94,,,,,,,,,,,,,51.411018699989654,None,51.411018699989654,None,51.411018699989654,None,52.42359730001772,None,52.42359730001772,None,52.42359730001772,None,0.05,0.2,52.66065969999181,52.87751640001079,52.66065969999181,52.87751640001079,52.66065969999181,52.87751640001079,space,0.3331303999875672,52.66065969999181,None,53.012138599995524,None,5,001,2020_Apr_15_1939,experiment,2020.1.3,59.95840086580645,
images/light_grey_box,images/light_grey_box,images/light_grey_box_with_cue,images/light_grey_box,images/light_grey_box_with_target,images/light_grey_box,0,0.3,0.45,0,15,15,92,,,,,,,,,,,,,53.52718520001508,None,53.52718520001508,None,53.52718520001508,None,54.5356230000034,None,54.5356230000034,None,54.5356230000034,None,0.1,0.25,54.776913699985016,54.893512599985115,54.776913699985016,54.893512599985115,54.776913699985016,54.893512599985115,space,0.2609184000175446,54.776913699985016,None,55.06087629997637,None,5,001,2020_Apr_15_1939,experiment,2020.1.3,59.95840086580645,
images/light_grey_box_with_cue,images/light_grey_box,images/light_grey_box,images/light_grey_box,images/light_grey_box_with_target,images/light_grey_box,0,0.3,0.45,0,16,16,82,,,,,,,,,,,,,55.560144199989736,None,55.560144199989736,None,55.560144199989736,None,56.5719593000249,None,56.5719593000249,None,56.5719593000249,None,0.05,0.2,56.84522159997141,56.9430933999829,56.84522159997141,56.9430933999829,56.84522159997141,56.9430933999829,space,0.15254929999355227,56.84522159997141,None,57.02919779997319,None,5,001,2020_Apr_15_1939,experiment,2020.1.3,59.95840086580645,
images/light_grey_box,images/light_grey_box,images/light_grey_box_with_cue,images/light_grey_box,images/light_grey_box_with_target,images/light_grey_box,0,0.05,0.2,0,17,17,31,,,,,,,,,,,,,57.54495140002109,None,57.54495140002109,None,57.54495140002109,None,58.561755599977914,None,58.561755599977914,None,58.561755599977914,None,0.05,0.2,58.743971000018064,58.96048259997042,58.743971000018064,58.96048259997042,58.743971000018064,58.96048259997042,space,0.2202568000066094,58.743971000018064,None,58.997315799992066,None,5,001,2020_Apr_15_1939,experiment,2020.1.3,59.95840086580645,
images/light_grey_box_with_cue,images/light_grey_box,images/light_grey_box,images/light_grey_box,images/light_grey_box_with_target,images/light_grey_box,0,0.5,0.65,0,18,18,103,,,,,,,,,,,,,59.510052199999336,None,59.510052199999336,None,59.510052199999336,None,60.527991399983875,None,60.527991399983875,None,60.527991399983875,None,0.3,0.44999999999999996,60.69295609998517,60.858981999976095,60.69295609998517,60.858981999976095,60.69295609998517,60.858981999976095,space,0.24003089999314398,60.69295609998517,None,60.961219599994365,None,5,001,2020_Apr_15_1939,experiment,2020.1.3,59.95840086580645,
images/light_grey_box,images/light_grey_box,images/light_grey_box_with_cue,images/light_grey_box,images/light_grey_box_with_target,images/light_grey_box,0,0.5,0.65,0,19,19,110,,,,,,,,,,,,,61.4756571999751,None,61.4756571999751,None,61.4756571999751,None,62.48387039999943,None,62.48387039999943,None,62.48387039999943,None,0.05,0.2,62.63513170002261,None,62.63513170002261,None,62.63513170002261,None,space,0.22111749998293817,62.63513170002261,None,62.876664499985054,None,5,001,2020_Apr_15_1939,experiment,2020.1.3,59.95840086580645,
images/light_grey_box_with_cue,images/light_grey_box,images/light_grey_box,images/light_grey_box,images/light_grey_box,images/light_grey_box,0,0.1,0.25,0,20,20,48,,,,,,,,,,,,,63.392076699994504,None,63.392076699994504,None,63.392076699994504,None,64.40266530000372,None,64.40266530000372,None,64.40266530000372,None,0.0,0.15,64.57652699999744,64.72534980002092,64.57652699999744,64.72534980002092,64.57652699999744,64.72534980002092,space,0.14117319998331368,64.57652699999744,None,64.74287750001531,None,5,001,2020_Apr_15_1939,experiment,2020.1.3,59.95840086580645,
images/light_grey_box_with_cue,images/light_grey_box,images/light_grey_box,images/light_grey_box_with_target,images/light_grey_box,images/light_grey_box,0,0.5,0.65,0,21,21,106,,,,,,,,,,,,,65.25811549997889,None,65.25811549997889,None,65.25811549997889,None,66.2696795000229,None,66.2696795000229,None,66.2696795000229,None,0.05,0.2,66.41813940001884,None,66.41813940001884,None,66.41813940001884,None,space,0.12360880000051111,66.41813940001884,None,66.56073510000715,None,5,001,2020_Apr_15_1939,experiment,2020.1.3,59.95840086580645,
images/light_grey_box_with_cue,images/light_grey_box,images/light_grey_box,images/light_grey_box,images/light_grey_box,images/light_grey_box,0,0.2,0.35,0,22,22,69,,,,,,,,,,,,,67.07532489998266,None,67.07532489998266,None,67.07532489998266,None,68.08364010002697,None,68.08364010002697,None,68.08364010002697,None,0.2,0.35,68.29097949998686,None,68.29097949998686,None,68.29097949998686,None,space,0.09283049998339266,68.29097949998686,None,68.40958199999295,None,5,001,2020_Apr_15_1939,experiment,2020.1.3,59.95840086580645,
images/light_grey_box_with_cue,images/light_grey_box,images/light_grey_box,images/light_grey_box,images/light_grey_box_with_target,images/light_grey_box,0,0.1,0.25,0,23,23,41,,,,,,,,,,,,,68.9250223999843,None,68.9250223999843,None,68.9250223999843,None,69.94478899997193,None,69.94478899997193,None,69.94478899997193,None,0.0,0.15,70.10710600001039,70.27370030002203,70.10710600001039,70.27370030002203,70.10710600001039,70.27370030002203,space,1.4079062000382692,70.10710600001039,None,71.5438993999851,None,5,001,2020_Apr_15_1939,experiment,2020.1.3,59.95840086580645,
images/light_grey_box,images/light_grey_box,images/light_grey_box_with_cue,images/light_grey_box,images/light_grey_box_with_target,images/light_grey_box,0,0.5,0.65,0,24,24,111,,,,,,,,,,,,,72.05672360002063,None,72.05672360002063,None,72.05672360002063,None,73.06531799997902,None,73.06531799997902,None,73.06531799997902,None,0.0,0.15,73.21638050000183,73.45637809997424,73.21638050000183,73.45637809997424,73.21638050000183,73.45637809997424,space,0.2547187000163831,73.21638050000183,None,73.49081190000288,None,5,001,2020_Apr_15_1939,experiment,2020.1.3,59.95840086580645,
images/light_grey_box_with_cue,images/light_grey_box,images/light_grey_box,images/light_grey_box,images/light_grey_box,images/light_grey_box,0,0.0,0.15,0,25,25,9,,,,,,,,,,,,,74.00705810001818,None,74.00705810001818,None,74.00705810001818,None,75.01652030000696,None,75.01652030000696,None,75.01652030000696,None,0.5,0.65,75.20614339999156,None,75.20614339999156,None,75.20614339999156,None,space,0.1333161999937147,75.20614339999156,None,75.3567589999875,None,5,001,2020_Apr_15_1939,experiment,2020.1.3,59.95840086580645,
images/light_grey_box,images/light_grey_box,images/light_grey_box_with_cue,images/light_grey_box,images/light_grey_box,images/light_grey_box,0,0.3,0.45,0,26,26,99,,,,,,,,,,,,,75.85642999998527,None,75.85642999998527,None,75.85642999998527,None,76.86517070000991,None,76.86517070000991,None,76.86517070000991,None,0.5,0.65,77.05342820001533,77.15577930002473,77.05342820001533,77.15577930002473,77.05342820001533,77.15577930002473,space,0.09889350004959852,77.05342820001533,None,77.17311540001538,None,5,001,2020_Apr_15_1939,experiment,2020.1.3,59.95840086580645,
images/light_grey_box_with_cue,images/light_grey_box,images/light_grey_box,images/light_grey_box,images/light_grey_box_with_target,images/light_grey_box,0,0.2,0.35,0,27,27,61,,,,,,,,,,,,,77.67233839997789,None,77.67233839997789,None,77.67233839997789,None,78.68742520001251,None,78.68742520001251,None,78.68742520001251,None,0.5,0.65,78.90586110000731,None,78.90586110000731,None,78.90586110000731,None,space,0.14459129999158904,78.90586110000731,None,79.07278699998278,None,5,001,2020_Apr_15_1939,experiment,2020.1.3,59.95840086580645,
images/light_grey_box,images/light_grey_box,images/light_grey_box,images/light_grey_box,images/light_grey_box_with_target,images/light_grey_box,0,0.05,0.2,0,28,28,36,,,,,,,,,,,,,79.57206259999657,None,79.57206259999657,None,79.57206259999657,None,80.59390789997997,None,80.59390789997997,None,80.59390789997997,None,0.3,0.44999999999999996,80.7615101999836,80.93848459998844,80.7615101999836,80.93848459998844,80.7615101999836,80.93848459998844,space,1.2022784000146203,80.7615101999836,None,81.99147489998722,None,5,001,2020_Apr_15_1939,experiment,2020.1.3,59.95840086580645,
images/light_grey_box,images/light_grey_box,images/light_grey_box_with_cue,images/light_grey_box,images/light_grey_box,images/light_grey_box,0,0.05,0.2,0,29,29,38,,,,,,,,,,,,,82.5048118000268,None,82.5048118000268,None,82.5048118000268,None,83.51584860001458,None,83.51584860001458,None,83.51584860001458,None,0.05,0.2,83.72129949997179,83.85517980001168,83.72129949997179,83.85517980001168,83.72129949997179,83.85517980001168,space,0.2624472000170499,83.72129949997179,None,84.00570009998046,None,5,001,2020_Apr_15_1939,experiment,2020.1.3,59.95840086580645,
images/light_grey_box_with_cue,images/light_grey_box,images/light_grey_box,images/light_grey_box,images/light_grey_box_with_target,images/light_grey_box,0,0.05,0.2,0,30,30,24,,,,,,,,,,,,,84.50454190000892,None,84.50454190000892,None,84.50454190000892,None,85.51490279997233,None,85.51490279997233,None,85.51490279997233,None,0.3,0.44999999999999996,85.679918800015,85.83733399998164,85.679918800015,85.83733399998164,85.679918800015,85.83733399998164,space,0.2496211999678053,85.679918800015,None,85.95534039998893,None,5,001,2020_Apr_15_1939,experiment,2020.1.3,59.95840086580645,
images/light_grey_box,images/light_grey_box,images/light_grey_box_with_cue,images/light_grey_box,images/light_grey_box,images/light_grey_box_with_target,0,0.1,0.25,0,31,31,57,,,,,,,,,,,,,86.4705584999756,None,86.4705584999756,None,86.4705584999756,None,87.47867699997732,None,87.47867699997732,None,87.47867699997732,None,0.0,0.15,87.65356050000992,87.82013120001648,87.65356050000992,87.82013120001648,87.65356050000992,87.82013120001648,space,0.2415115000330843,87.65356050000992,None,87.92113109998172,None,5,001,2020_Apr_15_1939,experiment,2020.1.3,59.95840086580645,
images/light_grey_box,images/light_grey_box,images/light_grey_box_with_cue,images/light_grey_box,images/light_grey_box,images/light_grey_box_with_target,0,0.3,0.45,0,32,32,97,,,,,,,,,,,,,88.43714739999268,None,88.43714739999268,None,88.43714739999268,None,89.4458504000213,None,89.4458504000213,None,89.4458504000213,None,0.05,0.2,89.66988369997125,89.73646099999314,89.66988369997125,89.73646099999314,89.66988369997125,89.73646099999314,space,0.16068999998969957,89.66988369997125,None,89.85435410001082,None,5,001,2020_Apr_15_1939,experiment,2020.1.3,59.95840086580645,
images/light_grey_box_with_cue,images/light_grey_box,images/light_grey_box,images/light_grey_box,images/light_grey_box_with_target,images/light_grey_box,0,0.2,0.35,0,33,33,64,,,,,,,,,,,,,90.36967709998135,None,90.36967709998135,None,90.36967709998135,None,91.37928190000821,None,91.37928190000821,None,91.37928190000821,None,0.1,0.25,91.61959229997592,91.68607429997064,91.61959229997592,91.68607429997064,91.61959229997592,91.68607429997064,space,0.0704004000290297,91.61959229997592,None,91.71991629997501,None,5,001,2020_Apr_15_1939,experiment,2020.1.3,59.95840086580645,
images/light_grey_box,images/light_grey_box,images/light_grey_box_with_cue,images/light_grey_box,images/light_grey_box_with_target,images/light_grey_box,0,0.5,0.65,0,34,34,112,,,,,,,,,,,,,92.22396550001577,None,92.22396550001577,None,92.22396550001577,None,93.24733089999063,None,93.24733089999063,None,93.24733089999063,None,0.1,0.25,93.39485839998815,93.58634049998363,93.39485839998815,93.58634049998363,93.39485839998815,93.58634049998363,space,0.24980109999887645,93.39485839998815,None,93.67258690000745,None,5,001,2020_Apr_15_1939,experiment,2020.1.3,59.95840086580645,
images/light_grey_box_with_cue,images/light_grey_box,images/light_grey_box,images/light_grey_box,images/light_grey_box,images/light_grey_box,0,0.05,0.2,0,35,35,29,,,,,,,,,,,,,94.17449419997865,None,94.17449419997865,None,94.17449419997865,None,95.19530879997183,None,95.19530879997183,None,95.19530879997183,None,0.3,0.44999999999999996,95.38555609999457,95.53532740002265,95.38555609999457,95.53532740002265,95.38555609999457,95.53532740002265,space,0.18108799995388836,95.38555609999457,None,95.5883993000025,None,5,001,2020_Apr_15_1939,experiment,2020.1.3,59.95840086580645,
images/light_grey_box_with_cue,images/light_grey_box,images/light_grey_box,images/light_grey_box,images/light_grey_box_with_target,images/light_grey_box,0,0.1,0.25,0,36,36,43,,,,,,,,,,,,,96.10196310002357,None,96.10196310002357,None,96.10196310002357,None,97.11219110002276,None,97.11219110002276,None,97.11219110002276,None,0.5,0.65,97.28298110002652,97.41831600002479,97.28298110002652,97.41831600002479,97.28298110002652,97.41831600002479,space,0.13205640000524,97.28298110002652,None,97.4359090999933,None,5,001,2020_Apr_15_1939,experiment,2020.1.3,59.95840086580645,
images/light_grey_box,images/light_grey_box,images/light_grey_box_with_cue,images/light_grey_box,images/light_grey_box,images/light_grey_box_with_target,0,0.5,0.65,0,37,37,117,,,,,,,,,,,,,97.93809989996953,None,97.93809989996953,None,97.93809989996953,None,98.96683649998158,None,98.96683649998158,None,98.96683649998158,None,0.0,0.15,99.16799950000132,99.35111470002448,99.16799950000132,99.35111470002448,99.16799950000132,99.35111470002448,space,0.18498249998083338,99.16799950000132,None,99.38542050000979,None,5,001,2020_Apr_15_1939,experiment,2020.1.3,59.95840086580645,
images/light_grey_box,images/light_grey_box,images/light_grey_box_with_cue,images/light_grey_box,images/light_grey_box_with_target,images/light_grey_box,0,0.1,0.25,0,38,38,50,,,,,,,,,,,,,99.88445090001915,None,99.88445090001915,None,99.88445090001915,None,100.89590719999978,None,100.89590719999978,None,100.89590719999978,None,0.05,0.2,101.05996360001154,101.201138000004,101.05996360001154,101.201138000004,101.05996360001154,101.201138000004,space,0.1576457000337541,101.05996360001154,None,101.23523920000298,None,5,001,2020_Apr_15_1939,experiment,2020.1.3,59.95840086580645,
images/light_grey_box_with_cue,images/light_grey_box,images/light_grey_box,images/light_grey_box,images/light_grey_box,images/light_grey_box_with_target,0,0.1,0.25,0,39,39,47,,,,,,,,,,,,,101.75080879998859,None,101.75080879998859,None,101.75080879998859,None,102.76091000001179,None,102.76091000001179,None,102.76091000001179,None,0.0,0.15,102.96724750002613,103.05037209996954,102.96724750002613,103.05037209996954,102.96724750002613,103.05037209996954,space,0.11769420001655817,102.96724750002613,None,103.1013643000042,None,5,001,2020_Apr_15_1939,experiment,2020.1.3,59.95840086580645,
images/light_grey_box_with_cue,images/light_grey_box,images/light_grey_box,images/light_grey_box,images/light_grey_box_with_target,images/light_grey_box,0,0.5,0.65,0,40,40,101,,,,,,,,,,,,,103.60035670001525,None,103.60035670001525,None,103.60035670001525,None,104.62340350000886,None,104.62340350000886,None,104.62340350000886,None,0.5,0.65,104.77904699998908,104.91695280000567,104.77904699998908,104.91695280000567,104.77904699998908,104.91695280000567,space,0.26665519998641685,104.77904699998908,None,105.07088780001504,None,5,001,2020_Apr_15_1939,experiment,2020.1.3,59.95840086580645,
images/light_grey_box_with_cue,images/light_grey_box,images/light_grey_box,images/light_grey_box,images/light_grey_box,images/light_grey_box,0,0.05,0.2,0,41,41,28,,,,,,,,,,,,,105.584864799981,None,105.584864799981,None,105.584864799981,None,106.59460000001127,None,106.59460000001127,None,106.59460000001127,None,0.05,0.2,106.86640449997503,106.95015420002164,106.86640449997503,106.95015420002164,106.86640449997503,106.95015420002164,space,0.16794680000748485,106.86640449997503,None,107.05367320001824,None,5,001,2020_Apr_15_1939,experiment,2020.1.3,59.95840086580645,
images/light_grey_box,images/light_grey_box,images/light_grey_box_with_cue,images/light_grey_box,images/light_grey_box,images/light_grey_box,0,0.2,0.35,0,42,42,78,,,,,,,,,,,,,107.56683309999062,None,107.56683309999062,None,107.56683309999062,None,108.57548940001288,None,108.57548940001288,None,108.57548940001288,None,0.1,0.25,108.74979349999921,None,108.74979349999921,None,108.74979349999921,None,space,0.08548990002600476,108.74979349999921,None,108.86660180002218,None,5,001,2020_Apr_15_1939,experiment,2020.1.3,59.95840086580645,
images/light_grey_box_with_cue,images/light_grey_box,images/light_grey_box,images/light_grey_box_with_target,images/light_grey_box,images/light_grey_box,0,0.2,0.35,0,43,43,66,,,,,,,,,,,,,109.36594879999757,None,109.36594879999757,None,109.36594879999757,None,110.3778332999791,None,110.3778332999791,None,110.3778332999791,None,0.2,0.35,110.54412350000348,110.73252969997702,110.54412350000348,110.73252969997702,110.54412350000348,110.73252969997702,space,0.2605438000173308,110.54412350000348,None,110.83330830000341,None,5,001,2020_Apr_15_1939,experiment,2020.1.3,59.95840086580645,
images/light_grey_box,images/light_grey_box,images/light_grey_box_with_cue,images/light_grey_box,images/light_grey_box,images/light_grey_box_with_target,0,0.05,0.2,0,44,44,37,,,,,,,,,,,,,111.33410969999386,None,111.33410969999386,None,111.33410969999386,None,112.36111120000714,None,112.36111120000714,None,112.36111120000714,None,0.2,0.35,112.58190709998598,112.64850609999849,112.58190709998598,112.64850609999849,112.58190709998598,112.64850609999849,space,0.08059269998921081,112.58190709998598,None,112.68329289997928,None,5,001,2020_Apr_15_1939,experiment,2020.1.3,59.95840086580645,
images/light_grey_box_with_cue,images/light_grey_box,images/light_grey_box,images/light_grey_box,images/light_grey_box_with_target,images/light_grey_box,0,0.5,0.65,0,45,45,104,,,,,,,,,,,,,113.19929179997416,None,113.19929179997416,None,113.19929179997416,None,114.21228350000456,None,114.21228350000456,None,114.21228350000456,None,0.0,0.15,114.39841040002648,114.51612510002451,114.39841040002648,114.51612510002451,114.39841040002648,114.51612510002451,space,0.11365419998764992,114.39841040002648,None,114.53447539999615,None,5,001,2020_Apr_15_1939,experiment,2020.1.3,59.95840086580645,
images/light_grey_box_with_cue,images/light_grey_box,images/light_grey_box,images/light_grey_box,images/light_grey_box_with_target,images/light_grey_box,0,0.0,0.15,0,46,46,2,,,,,,,,,,,,,115.04901229997631,None,115.04901229997631,None,115.04901229997631,None,116.0626272999798,None,116.0626272999798,None,116.0626272999798,None,0.0,0.15,116.24841340002604,None,116.24841340002604,None,116.24841340002604,None,space,0.1127318000071682,116.24841340002604,None,116.38509489997523,None,5,001,2020_Apr_15_1939,experiment,2020.1.3,59.95840086580645,
images/light_grey_box,images/light_grey_box,images/light_grey_box,images/light_grey_box,images/light_grey_box_with_target,images/light_grey_box,0,0.2,0.35,0,47,47,75,,,,,,,,,,,,,116.89891529997112,None,116.89891529997112,None,116.89891529997112,None,117.91107360000024,None,117.91107360000024,None,117.91107360000024,None,0.3,0.44999999999999996,118.11415959999431,118.21452179999324,118.11415959999431,118.21452179999324,118.11415959999431,118.21452179999324,space,0.15667220001341775,118.11415959999431,None,118.30179870000575,None,5,001,2020_Apr_15_1939,experiment,2020.1.3,59.95840086580645,
images/light_grey_box_with_cue,images/light_grey_box,images/light_grey_box,images/light_grey_box,images/light_grey_box_with_target,images/light_grey_box,0,0.0,0.15,0,48,48,3,,,,,,,,,,,,,118.81406800000696,None,118.81406800000696,None,118.81406800000696,None,119.8240784999798,None,119.8240784999798,None,119.8240784999798,None,0.5,0.65,120.03047659998992,120.21376180002699,120.03047659998992,120.21376180002699,120.03047659998992,120.21376180002699,space,0.18351419997634366,120.03047659998992,None,120.23189759999514,None,5,001,2020_Apr_15_1939,experiment,2020.1.3,59.95840086580645,
images/light_grey_box,images/light_grey_box,images/light_grey_box_with_cue,images/light_grey_box,images/light_grey_box_with_target,images/light_grey_box,0,0.0,0.15,0,49,49,14,,,,,,,,,,,,,120.73346409999067,None,120.73346409999067,None,120.73346409999067,None,121.75514640001347,None,121.75514640001347,None,121.75514640001347,None,0.5,0.65,122.01342440000735,122.09699499997078,122.01342440000735,122.09699499997078,122.01342440000735,122.09699499997078,space,2.547982999996748,122.01342440000735,None,124.58266469999216,None,5,001,2020_Apr_15_1939,experiment,2020.1.3,59.95840086580645,
images/light_grey_box_with_cue,images/light_grey_box,images/light_grey_box,images/light_grey_box,images/light_grey_box_with_target,images/light_grey_box,0,0.5,0.65,0,50,50,100,,,,,,,,,,,,,125.09641290002037,None,125.09641290002037,None,125.09641290002037,None,126.1057033999823,None,126.1057033999823,None,126.1057033999823,None,0.5,0.65,126.29585729999235,126.46264550002525,126.29585729999235,126.46264550002525,126.29585729999235,126.46264550002525,space,0.17802920000394806,126.29585729999235,None,126.49666469998192,None,5,001,2020_Apr_15_1939,experiment,2020.1.3,59.95840086580645,
images/light_grey_box_with_cue,images/light_grey_box,images/light_grey_box,images/light_grey_box,images/light_grey_box_with_target,images/light_grey_box,0,0.3,0.45,0,51,51,83,,,,,,,,,,,,,126.99584739998681,None,126.99584739998681,None,126.99584739998681,None,128.0187728999881,None,128.0187728999881,None,128.0187728999881,None,0.0,0.15,128.27945319999708,128.3129322999739,128.27945319999708,128.3129322999739,128.27945319999708,128.3129322999739,space,0.24281780002638698,128.27945319999708,None,128.54834929999197,None,5,001,2020_Apr_15_1939,experiment,2020.1.3,59.95840086580645,
images/light_grey_box_with_cue,images/light_grey_box,images/light_grey_box,images/light_grey_box,images/light_grey_box_with_target,images/light_grey_box,0,0.2,0.35,0,52,52,63,,,,,,,,,,,,,129.06340699997963,None,129.06340699997963,None,129.06340699997963,None,130.08666999998968,None,130.08666999998968,None,130.08666999998968,None,0.2,0.35,130.27839150000364,130.46231269999407,130.27839150000364,130.46231269999407,130.27839150000364,130.46231269999407,space,0.19869689998449758,130.27839150000364,None,130.4987925000023,None,5,001,2020_Apr_15_1939,experiment,2020.1.3,59.95840086580645,
images/light_grey_box,images/light_grey_box,images/light_grey_box,images/light_grey_box,images/light_grey_box_with_target,images/light_grey_box,0,0.05,0.2,0,53,53,34,,,,,,,,,,,,,131.0139791999827,None,131.0139791999827,None,131.0139791999827,None,132.02005350001855,None,132.02005350001855,None,132.02005350001855,None,0.3,0.44999999999999996,132.17403579998063,132.39483870001277,132.17403579998063,132.39483870001277,132.17403579998063,132.39483870001277,space,1.7715592000167817,132.17403579998063,None,133.96685389999766,None,5,001,2020_Apr_15_1939,experiment,2020.1.3,59.95840086580645,
images/light_grey_box,images/light_grey_box,images/light_grey_box,images/light_grey_box,images/light_grey_box_with_target,images/light_grey_box,0,0.5,0.65,0,54,54,114,,,,,,,,,,,,,134.4775032000034,None,134.4775032000034,None,134.4775032000034,None,135.48433940001996,None,135.48433940001996,None,135.48433940001996,None,0.5,0.65,135.6773175999988,135.87713560002157,135.6773175999988,135.87713560002157,135.6773175999988,135.87713560002157,space,0.2584703000029549,135.6773175999988,None,135.96342200000072,None,5,001,2020_Apr_15_1939,experiment,2020.1.3,59.95840086580645,
images/light_grey_box,images/light_grey_box,images/light_grey_box_with_cue,images/light_grey_box,images/light_grey_box_with_target,images/light_grey_box,0,0.2,0.35,0,55,55,72,,,,,,,,,,,,,136.47713810001733,None,136.47713810001733,None,136.47713810001733,None,137.48573090002174,None,137.48573090002174,None,137.48573090002174,None,0.05,0.2,137.74361679999856,137.8434468000196,137.74361679999856,137.8434468000196,137.74361679999856,137.8434468000196,space,0.173751300026197,137.74361679999856,None,137.94689710001694,None,5,001,2020_Apr_15_1939,experiment,2020.1.3,59.95840086580645,
images/light_grey_box,images/light_grey_box,images/light_grey_box_with_cue,images/light_grey_box,images/light_grey_box,images/light_grey_box,0,0.0,0.15,0,56,56,19,,,,,,,,,,,,,138.45998839999083,None,138.45998839999083,None,138.45998839999083,None,139.4690151999821,None,139.4690151999821,None,139.4690151999821,None,0.1,0.25,139.62986310000997,139.8097007999895,139.62986310000997,139.8097007999895,139.62986310000997,139.8097007999895,space,0.3384967999882065,139.62986310000997,None,139.9961631000042,None,5,001,2020_Apr_15_1939,experiment,2020.1.3,59.95840086580645,
images/light_grey_box,images/light_grey_box,images/light_grey_box_with_cue,images/light_grey_box,images/light_grey_box,images/light_grey_box,0,0.3,0.45,0,57,57,98,,,,,,,,,,,,,140.5117291000206,None,140.5117291000206,None,140.5117291000206,None,141.52985350001836,None,141.52985350001836,None,141.52985350001836,None,0.1,0.25,141.72619700001087,141.80929140001535,141.72619700001087,141.80929140001535,141.72619700001087,141.80929140001535,space,0.3498297000187449,141.72619700001087,None,142.09336260001874,None,5,001,2020_Apr_15_1939,experiment,2020.1.3,59.95840086580645,
images/light_grey_box_with_cue,images/light_grey_box,images/light_grey_box,images/light_grey_box,images/light_grey_box_with_target,images/light_grey_box,0,0.1,0.25,0,58,58,44,,,,,,,,,,,,,142.59477620001417,None,142.59477620001417,None,142.59477620001417,None,143.62180279998574,None,143.62180279998574,None,143.62180279998574,None,0.05,0.2,143.89238709997153,143.92564400000265,143.89238709997153,143.92564400000265,143.89238709997153,143.92564400000265,space,0.12740140000823885,143.89238709997153,None,144.04373520001536,None,5,001,2020_Apr_15_1939,experiment,2020.1.3,59.95840086580645,
images/light_grey_box,images/light_grey_box,images/light_grey_box,images/light_grey_box,images/light_grey_box_with_target,images/light_grey_box,0,0.1,0.25,0,59,59,54,,,,,,,,,,,,,144.54409609996947,None,144.54409609996947,None,144.54409609996947,None,145.5754433000111,None,145.5754433000111,None,145.5754433000111,None,0.1,0.25,145.77543939999305,145.9087233999744,145.77543939999305,145.9087233999744,145.77543939999305,145.9087233999744,space,0.3522940999828279,145.77543939999305,None,146.14785660000052,None,5,001,2020_Apr_15_1939,experiment,2020.1.3,59.95840086580645,
images/light_grey_box_with_cue,images/light_grey_box,images/light_grey_box,images/light_grey_box,images/light_grey_box_with_target,images/light_grey_box,0,0.3,0.45,0,60,60,85,,,,,,,,,,,,,146.6588877000031,None,146.6588877000031,None,146.6588877000031,None,147.66965390002588,None,147.66965390002588,None,147.66965390002588,None,0.2,0.35,147.89163069997448,148.00814270001138,147.89163069997448,148.00814270001138,147.89163069997448,148.00814270001138,space,0.18338840000797063,147.89163069997448,None,148.0924385000253,None,5,001,2020_Apr_15_1939,experiment,2020.1.3,59.95840086580645,
images/light_grey_box_with_cue,images/light_grey_box,images/light_grey_box,images/light_grey_box,images/light_grey_box,images/light_grey_box,0,0.5,0.65,0,61,61,108,,,,,,,,,,,,,148.59136850002687,None,148.59136850002687,None,148.59136850002687,None,149.6027581000235,None,149.6027581000235,None,149.6027581000235,None,0.3,0.44999999999999996,149.90778870001668,149.97458410001127,149.90778870001668,149.97458410001127,149.90778870001668,149.97458410001127,space,0.08783570001833141,149.90778870001668,None,150.0252284000162,None,5,001,2020_Apr_15_1939,experiment,2020.1.3,59.95840086580645,
images/light_grey_box,images/light_grey_box,images/light_grey_box_with_cue,images/light_grey_box,images/light_grey_box_with_target,images/light_grey_box,0,0.0,0.15,0,62,62,10,,,,,,,,,,,,,150.52439239999512,None,150.52439239999512,None,150.52439239999512,None,151.5341198000242,None,151.5341198000242,None,151.5341198000242,None,0.0,0.15,151.74081280000973,151.8906030000071,151.74081280000973,151.8906030000071,151.74081280000973,151.8906030000071,space,0.22363760002190247,151.74081280000973,None,151.99367870000424,None,5,001,2020_Apr_15_1939,experiment,2020.1.3,59.95840086580645,
images/light_grey_box,images/light_grey_box,images/light_grey_box_with_cue,images/light_grey_box,images/light_grey_box_with_target,images/light_grey_box,0,0.0,0.15,0,63,63,13,,,,,,,,,,,,,152.50899569998728,None,152.50899569998728,None,152.50899569998728,None,153.533562000026,None,153.533562000026,None,153.533562000026,None,0.3,0.44999999999999996,153.70711439999286,153.90708189998986,153.70711439999286,153.90708189998986,153.70711439999286,153.90708189998986,space,0.2067873000050895,153.70711439999286,None,153.9417420999962,None,5,001,2020_Apr_15_1939,experiment,2020.1.3,59.95840086580645,
images/light_grey_box,images/light_grey_box,images/light_grey_box,images/light_grey_box,images/light_grey_box_with_target,images/light_grey_box,0,0.5,0.65,0,64,64,115,,,,,,,,,,,,,154.45709839998744,None,154.45709839998744,None,154.45709839998744,None,155.46444100001827,None,155.46444100001827,None,155.46444100001827,None,0.2,0.35,155.6378225000226,155.80645219999133,155.6378225000226,155.80645219999133,155.6378225000226,155.80645219999133,space,0.21294859994668514,155.6378225000226,None,155.87465299997712,None,5,001,2020_Apr_15_1939,experiment,2020.1.3,59.95840086580645,
images/light_grey_box,images/light_grey_box,images/light_grey_box_with_cue,images/light_grey_box,images/light_grey_box_with_target,images/light_grey_box,0,0.1,0.25,0,65,65,51,,,,,,,,,,,,,156.38981849997072,None,156.38981849997072,None,156.38981849997072,None,157.39834389998578,None,157.39834389998578,None,157.39834389998578,None,0.5,0.65,157.59083599998849,None,157.59083599998849,None,157.59083599998849,None,space,0.09929549996741116,157.59083599998849,None,157.70767899998464,None,5,001,2020_Apr_15_1939,experiment,2020.1.3,59.95840086580645,
images/light_grey_box_with_cue,images/light_grey_box,images/light_grey_box,images/light_grey_box,images/light_grey_box,images/light_grey_box_with_target,0,0.2,0.35,0,66,66,67,,,,,,,,,,,,,158.22291259997291,None,158.22291259997291,None,158.22291259997291,None,159.23458350001602,None,159.23458350001602,None,159.23458350001602,None,0.0,0.15,159.43919790000655,159.539235299977,159.43919790000655,159.539235299977,159.43919790000655,159.539235299977,space,0.1955870999954641,159.43919790000655,None,159.65676029998576,None,5,001,2020_Apr_15_1939,experiment,2020.1.3,59.95840086580645,
images/light_grey_box_with_cue,images/light_grey_box,images/light_grey_box,images/light_grey_box,images/light_grey_box,images/light_grey_box,0,0.3,0.45,0,67,67,89,,,,,,,,,,,,,160.15582059998997,None,160.15582059998997,None,160.15582059998997,None,161.16742150002392,None,161.16742150002392,None,161.16742150002392,None,0.5,0.65,161.35560389998136,161.4721675000037,161.35560389998136,161.4721675000037,161.35560389998136,161.4721675000037,space,0.16769760003080592,161.35560389998136,None,161.5402893999708,None,5,001,2020_Apr_15_1939,experiment,2020.1.3,59.95840086580645,
images/light_grey_box_with_cue,images/light_grey_box,images/light_grey_box,images/light_grey_box,images/light_grey_box_with_target,images/light_grey_box,0,0.05,0.2,0,68,68,25,,,,,,,,,,,,,162.0554812999908,None,162.0554812999908,None,162.0554812999908,None,163.06478319998132,None,163.06478319998132,None,163.06478319998132,None,0.05,0.2,163.2888303999789,None,163.2888303999789,None,163.2888303999789,None,space,0.04637460003141314,163.2888303999789,None,163.355911199993,None,5,001,2020_Apr_15_1939,experiment,2020.1.3,59.95840086580645,
images/light_grey_box_with_cue,images/light_grey_box,images/light_grey_box,images/light_grey_box_with_target,images/light_grey_box,images/light_grey_box,0,0.05,0.2,0,69,69,26,,,,,,,,,,,,,163.8550338000059,None,163.8550338000059,None,163.8550338000059,None,164.88428509997902,None,164.88428509997902,None,164.88428509997902,None,0.1,0.25,165.04870719998144,165.24009219999425,165.04870719998144,165.24009219999425,165.04870719998144,165.24009219999425,space,0.19483699998818338,165.04870719998144,None,165.27513660001568,None,5,001,2020_Apr_15_1939,experiment,2020.1.3,59.95840086580645,
images/light_grey_box,images/light_grey_box,images/light_grey_box,images/light_grey_box,images/light_grey_box_with_target,images/light_grey_box,0,0.1,0.25,0,70,70,56,,,,,,,,,,,,,165.788172999979,None,165.788172999979,None,165.788172999979,None,166.79557449999265,None,166.79557449999265,None,166.79557449999265,None,0.1,0.25,166.9747915000189,167.1558108999743,166.9747915000189,167.1558108999743,166.9747915000189,167.1558108999743,space,0.2346036999952048,166.9747915000189,None,167.2429416999803,None,5,001,2020_Apr_15_1939,experiment,2020.1.3,59.95840086580645,
images/light_grey_box_with_cue,images/light_grey_box,images/light_grey_box,images/light_grey_box,images/light_grey_box_with_target,images/light_grey_box,0,0.05,0.2,0,71,71,22,,,,,,,,,,,,,167.75575790001312,None,167.75575790001312,None,167.75575790001312,None,168.76447049999842,None,168.76447049999842,None,168.76447049999842,None,0.2,0.35,169.00479530001758,None,169.00479530001758,None,169.00479530001758,None,space,0.11462000000756234,169.00479530001758,None,169.14069929998368,None,5,001,2020_Apr_15_1939,experiment,2020.1.3,59.95840086580645,
images/light_grey_box_with_cue,images/light_grey_box,images/light_grey_box,images/light_grey_box,images/light_grey_box_with_target,images/light_grey_box,0,0.0,0.15,0,72,72,1,,,,,,,,,,,,,169.65427260001888,None,169.65427260001888,None,169.65427260001888,None,170.6704934000154,None,170.6704934000154,None,170.6704934000154,None,0.0,0.15,170.9036128000007,None,170.9036128000007,None,170.9036128000007,None,space,0.06726250000065193,170.9036128000007,None,170.98815300001297,None,5,001,2020_Apr_15_1939,experiment,2020.1.3,59.95840086580645,
images/light_grey_box_with_cue,images/light_grey_box,images/light_grey_box,images/light_grey_box,images/light_grey_box,images/light_grey_box,0,0.0,0.15,0,73,73,8,,,,,,,,,,,,,171.5037865000195,None,171.5037865000195,None,171.5037865000195,None,172.51843130000634,None,172.51843130000634,None,172.51843130000634,None,0.2,0.35,172.73693930002628,172.8699701000005,172.73693930002628,172.8699701000005,172.73693930002628,172.8699701000005,space,1.3062433000304736,172.73693930002628,None,174.07072959997458,None,5,001,2020_Apr_15_1939,experiment,2020.1.3,59.95840086580645,
images/light_grey_box,images/light_grey_box,images/light_grey_box,images/light_grey_box,images/light_grey_box_with_target,images/light_grey_box,0,0.3,0.45,0,74,74,96,,,,,,,,,,,,,174.58648150000954,None,174.58648150000954,None,174.58648150000954,None,175.5982930000173,None,175.5982930000173,None,175.5982930000173,None,0.5,0.65,175.835943699989,175.93577370001003,175.835943699989,175.93577370001003,175.835943699989,175.93577370001003,space,0.15853690000949427,175.835943699989,None,176.02138849999756,None,5,001,2020_Apr_15_1939,experiment,2020.1.3,59.95840086580645,
images/light_grey_box_with_cue,images/light_grey_box,images/light_grey_box,images/light_grey_box,images/light_grey_box,images/light_grey_box_with_target,0,0.3,0.45,0,75,75,87,,,,,,,,,,,,,176.5370821999968,None,176.5370821999968,None,176.5370821999968,None,177.54878269997425,None,177.54878269997425,None,177.54878269997425,None,0.1,0.25,177.75306700001238,None,177.75306700001238,None,177.75306700001238,None,space,0.1336767000029795,177.75306700001238,None,177.9074298000196,None,5,001,2020_Apr_15_1939,experiment,2020.1.3,59.95840086580645,
images/light_grey_box_with_cue,images/light_grey_box,images/light_grey_box,images/light_grey_box,images/light_grey_box,images/light_grey_box,0,0.1,0.25,0,76,76,49,,,,,,,,,,,,,178.41871850000462,None,178.41871850000462,None,178.41871850000462,None,179.42887569998857,None,179.42887569998857,None,179.42887569998857,None,0.2,0.35,179.5758733000257,179.76846160000423,179.5758733000257,179.76846160000423,179.5758733000257,179.76846160000423,space,0.23910780000733212,179.5758733000257,None,179.8358798000263,None,5,001,2020_Apr_15_1939,experiment,2020.1.3,59.95840086580645,
images/light_grey_box,images/light_grey_box,images/light_grey_box_with_cue,images/light_grey_box,images/light_grey_box_with_target,images/light_grey_box,0,0.2,0.35,0,77,77,70,,,,,,,,,,,,,180.33489629998803,None,180.33489629998803,None,180.33489629998803,None,181.34600060002413,None,181.34600060002413,None,181.34600060002413,None,0.2,0.35,181.56853440002305,None,181.56853440002305,None,181.56853440002305,None,space,0.12180399999488145,181.56853440002305,None,181.7189283000189,None,5,001,2020_Apr_15_1939,experiment,2020.1.3,59.95840086580645,
images/light_grey_box,images/light_grey_box,images/light_grey_box,images/light_grey_box,images/light_grey_box_with_target,images/light_grey_box,0,0.1,0.25,0,78,78,53,,,,,,,,,,,,,182.2348841999774,None,182.2348841999774,None,182.2348841999774,None,183.2418835000135,None,183.2418835000135,None,183.2418835000135,None,0.0,0.15,183.45108899998013,183.5343202999793,183.45108899998013,183.5343202999793,183.45108899998013,183.5343202999793,space,0.11271719995420426,183.45108899998013,None,183.58606150001287,None,5,001,2020_Apr_15_1939,experiment,2020.1.3,59.95840086580645,
images/light_grey_box,images/light_grey_box,images/light_grey_box_with_cue,images/light_grey_box,images/light_grey_box,images/light_grey_box,0,0.5,0.65,0,79,79,119,,,,,,,,,,,,,184.10094610002125,None,184.10094610002125,None,184.10094610002125,None,185.1093653999851,None,185.1093653999851,None,185.1093653999851,None,0.3,0.44999999999999996,185.317400800006,185.450623599987,185.317400800006,185.450623599987,185.317400800006,185.450623599987,space,0.1752078999998048,185.317400800006,None,185.5178776999819,None,5,001,2020_Apr_15_1939,experiment,2020.1.3,59.95840086580645,
images/light_grey_box,images/light_grey_box,images/light_grey_box_with_cue,images/light_grey_box,images/light_grey_box,images/light_grey_box_with_target,0,0.0,0.15,0,80,80,17,,,,,,,,,,,,,186.01759609999135,None,186.01759609999135,None,186.01759609999135,None,187.02671070001088,None,187.02671070001088,None,187.02671070001088,None,0.3,0.44999999999999996,187.25083640002413,187.3335712000262,187.25083640002413,187.3335712000262,187.25083640002413,187.3335712000262,space,0.12091779999900609,187.25083640002413,None,187.4009226000053,None,5,001,2020_Apr_15_1939,experiment,2020.1.3,59.95840086580645,
images/light_grey_box,images/light_grey_box,images/light_grey_box_with_cue,images/light_grey_box,images/light_grey_box_with_target,images/light_grey_box,0,0.3,0.45,0,81,81,91,,,,,,,,,,,,,187.9004587000236,None,187.9004587000236,None,187.9004587000236,None,188.91525660001207,None,188.91525660001207,None,188.91525660001207,None,0.5,0.65,189.13427809998393,189.29992419999326,189.13427809998393,189.29992419999326,189.13427809998393,189.29992419999326,space,0.15970069996546954,189.13427809998393,None,189.31814869999653,None,5,001,2020_Apr_15_1939,experiment,2020.1.3,59.95840086580645,
images/light_grey_box_with_cue,images/light_grey_box,images/light_grey_box,images/light_grey_box,images/light_grey_box_with_target,images/light_grey_box,0,0.5,0.65,0,82,82,102,,,,,,,,,,,,,189.8188739999896,None,189.8188739999896,None,189.8188739999896,None,190.84552759997314,None,190.84552759997314,None,190.84552759997314,None,0.05,0.2,191.0330061999848,191.13297460001195,191.0330061999848,191.13297460001195,191.0330061999848,191.13297460001195,space,0.13947880000341684,191.0330061999848,None,191.20145459997002,None,5,001,2020_Apr_15_1939,experiment,2020.1.3,59.95840086580645,
images/light_grey_box_with_cue,images/light_grey_box,images/light_grey_box,images/light_grey_box,images/light_grey_box,images/light_grey_box_with_target,0,0.5,0.65,0,83,83,107,,,,,,,,,,,,,191.71711989998585,None,191.71711989998585,None,191.71711989998585,None,192.72885229997337,None,192.72885229997337,None,192.72885229997337,None,0.0,0.15,192.91575049998937,None,192.91575049998937,None,192.91575049998937,None,space,0.022606800019275397,192.91575049998937,None,192.96732090000296,None,5,001,2020_Apr_15_1939,experiment,2020.1.3,59.95840086580645,
images/light_grey_box,images/light_grey_box,images/light_grey_box_with_cue,images/light_grey_box,images/light_grey_box,images/light_grey_box,0,0.0,0.15,0,84,84,18,,,,,,,,,,,,,193.48256919998676,None,193.48256919998676,None,193.48256919998676,None,194.4959995999816,None,194.4959995999816,None,194.4959995999816,None,0.5,0.65,194.73228719999315,194.86561089998577,194.73228719999315,194.86561089998577,194.73228719999315,194.86561089998577,space,0.15466909995302558,194.73228719999315,None,194.91667730000336,None,5,001,2020_Apr_15_1939,experiment,2020.1.3,59.95840086580645,
images/light_grey_box_with_cue,images/light_grey_box,images/light_grey_box,images/light_grey_box,images/light_grey_box_with_target,images/light_grey_box,0,0.2,0.35,0,85,85,65,,,,,,,,,,,,,195.43194169999333,None,195.43194169999333,None,195.43194169999333,None,196.44523160002427,None,196.44523160002427,None,196.44523160002427,None,0.5,0.65,196.6317648999975,196.79842379997717,196.6317648999975,196.79842379997717,196.6317648999975,196.79842379997717,space,0.2903396000037901,196.6317648999975,None,196.95015549997333,None,5,001,2020_Apr_15_1939,experiment,2020.1.3,59.95840086580645,
images/light_grey_box_with_cue,images/light_grey_box,images/light_grey_box,images/light_grey_box,images/light_grey_box_with_target,images/light_grey_box,0,0.1,0.25,0,86,86,45,,,,,,,,,,,,,197.4489273999934,None,197.4489273999934,None,197.4489273999934,None,198.45996970002307,None,198.45996970002307,None,198.45996970002307,None,0.2,0.35,198.73152879998088,None,198.73152879998088,None,198.73152879998088,None,space,0.030407599988393486,198.73152879998088,None,198.78278820001287,None,5,001,2020_Apr_15_1939,experiment,2020.1.3,59.95840086580645,
images/light_grey_box_with_cue,images/light_grey_box,images/light_grey_box,images/light_grey_box,images/light_grey_box,images/light_grey_box,0,0.5,0.65,0,87,87,109,,,,,,,,,,,,,199.29820989997825,None,199.29820989997825,None,199.29820989997825,None,200.31890549999662,None,200.31890549999662,None,200.31890549999662,None,0.5,0.65,200.48097809997853,200.59745890001068,200.48097809997853,200.59745890001068,200.48097809997853,200.59745890001068,space,0.16923499997938052,200.48097809997853,None,200.6680755999987,None,5,001,2020_Apr_15_1939,experiment,2020.1.3,59.95840086580645,
images/light_grey_box,images/light_grey_box,images/light_grey_box_with_cue,images/light_grey_box,images/light_grey_box_with_target,images/light_grey_box,0,0.1,0.25,0,88,88,52,,,,,,,,,,,,,201.18227589997696,None,201.18227589997696,None,201.18227589997696,None,202.188857799978,None,202.188857799978,None,202.188857799978,None,0.1,0.25,202.36527950002346,None,202.36527950002346,None,202.36527950002346,None,space,0.017393299960531294,202.36527950002346,None,202.41175009997096,None,5,001,2020_Apr_15_1939,experiment,2020.1.3,59.95840086580645,
images/light_grey_box,images/light_grey_box,images/light_grey_box_with_cue,images/light_grey_box,images/light_grey_box,images/light_grey_box,0,0.1,0.25,0,89,89,58,,,,,,,,,,,,,202.91381090000505,None,202.91381090000505,None,202.91381090000505,None,203.92216780001763,None,203.92216780001763,None,203.92216780001763,None,0.05,0.2,204.07082869997248,204.2633603999857,204.07082869997248,204.2633603999857,204.07082869997248,204.2633603999857,space,0.45937539997976273,204.07082869997248,None,204.5483235999709,None,5,001,2020_Apr_15_1939,experiment,2020.1.3,59.95840086580645,
images/light_grey_box,images/light_grey_box,images/light_grey_box,images/light_grey_box,images/light_grey_box_with_target,images/light_grey_box,0,0.2,0.35,0,90,90,74,,,,,,,,,,,,,205.06339419999858,None,205.06339419999858,None,205.06339419999858,None,206.07080530002713,None,206.07080530002713,None,206.07080530002713,None,0.5,0.65,206.2229969999753,206.4131217999966,206.2229969999753,206.4131217999966,206.2229969999753,206.4131217999966,space,0.3246770999976434,206.2229969999753,None,206.5642301000189,None,5,001,2020_Apr_15_1939,experiment,2020.1.3,59.95840086580645,
images/light_grey_box,images/light_grey_box,images/light_grey_box,images/light_grey_box,images/light_grey_box_with_target,images/light_grey_box,0,0.3,0.45,0,91,91,95,,,,,,,,,,,,,207.06393910001498,None,207.06393910001498,None,207.06393910001498,None,208.08704620000208,None,208.08704620000208,None,208.08704620000208,None,0.05,0.2,208.27936589997262,208.39597549999598,208.27936589997262,208.39597549999598,208.27936589997262,208.39597549999598,space,0.18558069999562576,208.27936589997262,None,208.4971724000061,None,5,001,2020_Apr_15_1939,experiment,2020.1.3,59.95840086580645,
images/light_grey_box,images/light_grey_box,images/light_grey_box,images/light_grey_box,images/light_grey_box_with_target,images/light_grey_box,0,0.05,0.2,0,92,92,33,,,,,,,,,,,,,209.02868839999428,None,209.02868839999428,None,209.02868839999428,None,210.02037629997358,None,210.02037629997358,None,210.02037629997358,None,0.1,0.25,210.31227320001926,210.41278369998327,210.31227320001926,210.41278369998327,210.31227320001926,210.41278369998327,space,1.400083500018809,210.31227320001926,None,211.7294723999803,None,5,001,2020_Apr_15_1939,experiment,2020.1.3,59.95840086580645,
images/light_grey_box_with_cue,images/light_grey_box,images/light_grey_box,images/light_grey_box,images/light_grey_box_with_target,images/light_grey_box,0,0.0,0.15,0,93,93,5,,,,,,,,,,,,,212.23057419998804,None,212.23057419998804,None,212.23057419998804,None,213.26814499998,None,213.26814499998,None,213.26814499998,None,0.05,0.2,213.46191900002304,213.66237749997526,213.46191900002304,213.66237749997526,213.46191900002304,213.66237749997526,space,0.19847880001179874,213.46191900002304,None,213.68248229997698,None,5,001,2020_Apr_15_1939,experiment,2020.1.3,59.95840086580645,
images/light_grey_box_with_cue,images/light_grey_box,images/light_grey_box,images/light_grey_box,images/light_grey_box_with_target,images/light_grey_box,0,0.3,0.45,0,94,94,81,,,,,,,,,,,,,214.19478489999892,None,214.19478489999892,None,214.19478489999892,None,215.20400690002134,None,215.20400690002134,None,215.20400690002134,None,0.0,0.15,215.3544112999807,215.5445845000213,215.3544112999807,215.5445845000213,215.3544112999807,215.5445845000213,space,0.25709939998341724,215.3544112999807,None,215.62908909999533,None,5,001,2020_Apr_15_1939,experiment,2020.1.3,59.95840086580645,
images/light_grey_box_with_cue,images/light_grey_box,images/light_grey_box,images/light_grey_box,images/light_grey_box,images/light_grey_box,0,0.2,0.35,0,95,95,68,,,,,,,,,,,,,216.14440980000654,None,216.14440980000654,None,216.14440980000654,None,217.15406179998536,None,217.15406179998536,None,217.15406179998536,None,0.05,0.2,217.3443972999812,217.61069439997664,217.3443972999812,217.61069439997664,217.3443972999812,217.61069439997664,space,0.2579425000003539,217.3443972999812,None,217.6291828000103,None,5,001,2020_Apr_15_1939,experiment,2020.1.3,59.95840086580645,
images/light_grey_box_with_cue,images/light_grey_box,images/light_grey_box,images/light_grey_box_with_target,images/light_grey_box,images/light_grey_box,0,0.0,0.15,0,96,96,6,,,,,,,,,,,,,218.14405280002393,None,218.14405280002393,None,218.14405280002393,None,219.15304940001806,None,219.15304940001806,None,219.15304940001806,None,0.1,0.25,219.36050629999954,219.4604476999957,219.36050629999954,219.4604476999957,219.36050629999954,219.4604476999957,space,0.25695220002671704,219.36050629999954,None,219.64514219999546,None,5,001,2020_Apr_15_1939,experiment,2020.1.3,59.95840086580645,
images/light_grey_box,images/light_grey_box,images/light_grey_box_with_cue,images/light_grey_box,images/light_grey_box_with_target,images/light_grey_box,0,0.0,0.15,0,97,97,12,,,,,,,,,,,,,220.16042819997529,None,220.16042819997529,None,220.16042819997529,None,221.17048470000736,None,221.17048470000736,None,221.17048470000736,None,0.2,0.35,221.46022850001464,221.49362720001955,221.46022850001464,221.49362720001955,221.46022850001464,221.49362720001955,space,0.0682196999550797,221.46022850001464,None,221.5446941999835,None,5,001,2020_Apr_15_1939,experiment,2020.1.3,59.95840086580645,
images/light_grey_box_with_cue,images/light_grey_box,images/light_grey_box,images/light_grey_box,images/light_grey_box_with_target,images/light_grey_box,0,0.1,0.25,0,98,98,40,,,,,,,,,,,,,222.0614483000245,None,222.0614483000245,None,222.0614483000245,None,223.07267630001297,None,223.07267630001297,None,223.07267630001297,None,0.1,0.25,223.25972360000014,223.34328799997456,223.25972360000014,223.34328799997456,223.25972360000014,223.34328799997456,space,0.26696680003078654,223.25972360000014,None,223.54502780002076,None,5,001,2020_Apr_15_1939,experiment,2020.1.3,59.95840086580645,
images/light_grey_box_with_cue,images/light_grey_box,images/light_grey_box,images/light_grey_box,images/light_grey_box_with_target,images/light_grey_box,0,0.1,0.25,0,99,99,42,,,,,,,,,,,,,224.06145480001578,None,224.06145480001578,None,224.06145480001578,None,225.0790683000232,None,225.0790683000232,None,225.0790683000232,None,0.5,0.65,225.21851460001199,225.44245239999145,225.21851460001199,225.44245239999145,225.21851460001199,225.44245239999145,space,0.5101828000042588,225.21851460001199,None,225.76203919999534,None,5,001,2020_Apr_15_1939,experiment,2020.1.3,59.95840086580645,
images/light_grey_box,images/light_grey_box,images/light_grey_box_with_cue,images/light_grey_box,images/light_grey_box_with_target,images/light_grey_box,0,0.05,0.2,0,100,100,32,,,,,,,,,,,,,226.27584620000562,None,226.27584620000562,None,226.27584620000562,None,227.28738250001334,None,227.28738250001334,None,227.28738250001334,None,0.3,0.44999999999999996,227.43747920001624,227.62541949999286,227.43747920001624,227.62541949999286,227.43747920001624,227.62541949999286,space,0.26187509996816516,227.43747920001624,None,227.7287958000088,None,5,001,2020_Apr_15_1939,experiment,2020.1.3,59.95840086580645,
images/light_grey_box,images/light_grey_box,images/light_grey_box,images/light_grey_box,images/light_grey_box_with_target,images/light_grey_box,0,0.05,0.2,0,101,101,35,,,,,,,,,,,,,228.2434852999868,None,228.2434852999868,None,228.2434852999868,None,229.25145029998384,None,229.25145029998384,None,229.25145029998384,None,0.0,0.15,229.45951050001895,229.6420228999923,229.45951050001895,229.6420228999923,229.45951050001895,229.6420228999923,space,0.17156000004615635,229.45951050001895,None,229.66075819998514,None,5,001,2020_Apr_15_1939,experiment,2020.1.3,59.95840086580645,
images/light_grey_box,images/light_grey_box,images/light_grey_box,images/light_grey_box,images/light_grey_box_with_target,images/light_grey_box,0,0.2,0.35,0,102,102,76,,,,,,,,,,,,,230.17522899998585,None,230.17522899998585,None,230.17522899998585,None,231.1879303000169,None,231.1879303000169,None,231.1879303000169,None,0.2,0.35,231.39137069997378,None,231.39137069997378,None,231.39137069997378,None,space,0.1620219000033103,231.39137069997378,None,231.57757790002506,None,5,001,2020_Apr_15_1939,experiment,2020.1.3,59.95840086580645,
images/light_grey_box_with_cue,images/light_grey_box,images/light_grey_box,images/light_grey_box,images/light_grey_box,images/light_grey_box_with_target,0,0.05,0.2,0,103,103,27,,,,,,,,,,,,,232.09124959999463,None,232.09124959999463,None,232.09124959999463,None,233.1010660000029,None,233.1010660000029,None,233.1010660000029,None,0.5,0.65,233.3411647999892,233.45765810000012,233.3411647999892,233.45765810000012,233.3411647999892,233.45765810000012,space,0.1634792999830097,233.3411647999892,None,233.52505619998556,None,5,001,2020_Apr_15_1939,experiment,2020.1.3,59.95840086580645,
images/light_grey_box_with_cue,images/light_grey_box,images/light_grey_box,images/light_grey_box,images/light_grey_box_with_target,images/light_grey_box,0,0.0,0.15,0,104,104,4,,,,,,,,,,,,,234.02418100001523,None,234.02418100001523,None,234.02418100001523,None,235.03508050000528,None,235.03508050000528,None,235.03508050000528,None,0.2,0.35,235.25738419999834,235.35713899997063,235.25738419999834,235.35713899997063,235.25738419999834,235.35713899997063,space,0.1498324999702163,235.25738419999834,None,235.42452529998263,None,5,001,2020_Apr_15_1939,experiment,2020.1.3,59.95840086580645,
images/light_grey_box_with_cue,images/light_grey_box,images/light_grey_box,images/light_grey_box,images/light_grey_box,images/light_grey_box_with_target,0,0.0,0.15,0,105,105,7,,,,,,,,,,,,,235.92383400001563,None,235.92383400001563,None,235.92383400001563,None,236.9486070999992,None,236.9486070999992,None,236.9486070999992,None,0.3,0.44999999999999996,237.09890500002075,None,237.09890500002075,None,237.09890500002075,None,space,0.14227980002760887,237.09890500002075,None,237.2580152999726,None,5,001,2020_Apr_15_1939,experiment,2020.1.3,59.95840086580645,
images/light_grey_box_with_cue,images/light_grey_box,images/light_grey_box,images/light_grey_box_with_target,images/light_grey_box,images/light_grey_box,0,0.1,0.25,0,106,106,46,,,,,,,,,,,,,237.75862530001905,None,237.75862530001905,None,237.75862530001905,None,238.78471189999254,None,238.78471189999254,None,238.78471189999254,None,0.3,0.44999999999999996,239.00658089999342,239.12310409999918,239.00658089999342,239.12310409999918,239.00658089999342,239.12310409999918,space,1.3060180000029504,239.00658089999342,None,240.34107859997312,None,5,001,2020_Apr_15_1939,experiment,2020.1.3,59.95840086580645,
images/light_grey_box,images/light_grey_box,images/light_grey_box,images/light_grey_box,images/light_grey_box_with_target,images/light_grey_box,0,0.1,0.25,0,107,107,55,,,,,,,,,,,,,240.85624719999032,None,240.85624719999032,None,240.85624719999032,None,241.8637873000116,None,241.8637873000116,None,241.8637873000116,None,0.5,0.65,242.0561694999924,242.20577140001114,242.0561694999924,242.20577140001114,242.0561694999924,242.20577140001114,space,0.2704190000076778,242.0561694999924,None,242.3567183999694,None,5,001,2020_Apr_15_1939,experiment,2020.1.3,59.95840086580645,
images/light_grey_box_with_cue,images/light_grey_box,images/light_grey_box,images/light_grey_box,images/light_grey_box_with_target,images/light_grey_box,0,0.3,0.45,0,108,108,84,,,,,,,,,,,,,242.85575529997004,None,242.85575529997004,None,242.85575529997004,None,243.86654810002074,None,243.86654810002074,None,243.86654810002074,None,0.3,0.44999999999999996,244.12230759998783,244.17230570001993,244.12230759998783,244.17230570001993,244.12230759998783,244.17230570001993,space,0.29469870001776144,244.12230759998783,None,244.4396200000192,None,5,001,2020_Apr_15_1939,experiment,2020.1.3,59.95840086580645,
images/light_grey_box_with_cue,images/light_grey_box,images/light_grey_box,images/light_grey_box,images/light_grey_box_with_target,images/light_grey_box,0,0.0,0.15,0,109,109,0,,,,,,,,,,,,,244.9556371999788,None,244.9556371999788,None,244.9556371999788,None,245.96543609997025,None,245.96543609997025,None,245.96543609997025,None,0.5,0.65,246.18837699998403,246.3049547999981,246.18837699998403,246.3049547999981,246.18837699998403,246.3049547999981,space,0.25783650000812486,246.18837699998403,None,246.47337869997136,None,5,001,2020_Apr_15_1939,experiment,2020.1.3,59.95840086580645,
images/light_grey_box,images/light_grey_box,images/light_grey_box_with_cue,images/light_grey_box,images/light_grey_box_with_target,images/light_grey_box,0,0.2,0.35,0,110,110,71,,,,,,,,,,,,,246.98890870000469,None,246.98890870000469,None,246.98890870000469,None,248.01995420001913,None,248.01995420001913,None,248.01995420001913,None,0.5,0.65,248.14738390001003,248.28872469998896,248.14738390001003,248.28872469998896,248.14738390001003,248.28872469998896,space,0.32241600000998005,248.14738390001003,None,248.49187929998152,None,5,001,2020_Apr_15_1939,experiment,2020.1.3,59.95840086580645,
images/light_grey_box,images/light_grey_box,images/light_grey_box_with_cue,images/light_grey_box,images/light_grey_box_with_target,images/light_grey_box,0,0.05,0.2,0,111,111,30,,,,,,,,,,,,,249.00557490001665,None,249.00557490001665,None,249.00557490001665,None,250.03033879998839,None,250.03033879998839,None,250.03033879998839,None,0.2,0.35,250.25446000002557,250.32088549999753,250.25446000002557,250.32088549999753,250.25446000002557,250.32088549999753,space,0.2528765000170097,250.25446000002557,None,250.5380500999745,None,5,001,2020_Apr_15_1939,experiment,2020.1.3,59.95840086580645,
images/light_grey_box,images/light_grey_box,images/light_grey_box,images/light_grey_box,images/light_grey_box_with_target,images/light_grey_box,0,0.3,0.45,0,112,112,93,,,,,,,,,,,,,251.03746650001267,None,251.03746650001267,None,251.03746650001267,None,252.04654130002018,None,252.04654130002018,None,252.04654130002018,None,0.05,0.2,252.30394329997944,None,252.30394329997944,None,252.30394329997944,None,space,0.008874999999534339,252.30394329997944,None,252.33877809997648,None,5,001,2020_Apr_15_1939,experiment,2020.1.3,59.95840086580645,
images/light_grey_box_with_cue,images/light_grey_box,images/light_grey_box,images/light_grey_box,images/light_grey_box_with_target,images/light_grey_box,0,0.2,0.35,0,113,113,60,,,,,,,,,,,,,252.8537784999935,None,252.8537784999935,None,252.8537784999935,None,253.86333700001705,None,253.86333700001705,None,253.86333700001705,None,0.3,0.44999999999999996,254.1534717999748,254.18670720001683,254.1534717999748,254.18670720001683,254.1534717999748,254.18670720001683,space,0.29610959999263287,254.1534717999748,None,254.4712607000256,None,5,001,2020_Apr_15_1939,experiment,2020.1.3,59.95840086580645,
images/light_grey_box,images/light_grey_box,images/light_grey_box,images/light_grey_box,images/light_grey_box_with_target,images/light_grey_box,0,0.2,0.35,0,114,114,73,,,,,,,,,,,,,254.98669470002642,None,254.98669470002642,None,254.98669470002642,None,255.9947895000223,None,255.9947895000223,None,255.9947895000223,None,0.2,0.35,256.1863454999984,256.2862933999859,256.1863454999984,256.2862933999859,256.1863454999984,256.2862933999859,space,0.24021940003149211,256.1863454999984,None,256.45427619997645,None,5,001,2020_Apr_15_1939,experiment,2020.1.3,59.95840086580645,
images/light_grey_box,images/light_grey_box,images/light_grey_box_with_cue,images/light_grey_box,images/light_grey_box,images/light_grey_box_with_target,0,0.2,0.35,0,115,115,77,,,,,,,,,,,,,256.9695877999766,None,256.9695877999766,None,256.9695877999766,None,257.978336900007,None,257.978336900007,None,257.978336900007,None,0.5,0.65,258.14043289999245,258.3526770999888,258.14043289999245,258.3526770999888,258.14043289999245,258.3526770999888,space,0.2821566999773495,258.14043289999245,None,258.4534980999888,None,5,001,2020_Apr_15_1939,experiment,2020.1.3,59.95840086580645,
images/light_grey_box,images/light_grey_box,images/light_grey_box_with_cue,images/light_grey_box,images/light_grey_box_with_target,images/light_grey_box,0,0.0,0.15,0,116,116,11,,,,,,,,,,,,,258.95249930000864,None,258.95249930000864,None,258.95249930000864,None,259.9639757000259,None,259.9639757000259,None,259.9639757000259,None,0.0,0.15,260.1500292000128,260.33613549999427,260.1500292000128,260.33613549999427,260.1500292000128,260.33613549999427,space,0.30904059996828437,260.1500292000128,None,260.48903449997306,None,5,001,2020_Apr_15_1939,experiment,2020.1.3,59.95840086580645,
images/light_grey_box,images/light_grey_box,images/light_grey_box_with_cue,images/light_grey_box_with_target,images/light_grey_box,images/light_grey_box,0,0.0,0.15,0,117,117,16,,,,,,,,,,,,,261.0067300000228,None,261.0067300000228,None,261.0067300000228,None,262.0308224000037,None,262.0308224000037,None,262.0308224000037,None,0.0,0.15,262.2185365000041,262.3517129999818,262.2185365000041,262.3517129999818,262.2185365000041,262.3517129999818,space,0.24561579996952787,262.2185365000041,None,262.4864024000126,None,5,001,2020_Apr_15_1939,experiment,2020.1.3,59.95840086580645,
images/light_grey_box_with_cue,images/light_grey_box,images/light_grey_box,images/light_grey_box,images/light_grey_box_with_target,images/light_grey_box,0,0.05,0.2,0,118,118,20,,,,,,,,,,,,,263.00203289999627,None,263.00203289999627,None,263.00203289999627,None,264.0112403000239,None,264.0112403000239,None,264.0112403000239,None,0.2,0.35,264.1825022000121,264.3012528999825,264.1825022000121,264.3012528999825,264.1825022000121,264.3012528999825,space,0.3038949000183493,264.1825022000121,None,264.5185157000087,None,5,001,2020_Apr_15_1939,experiment,2020.1.3,59.95840086580645,
images/light_grey_box,images/light_grey_box,images/light_grey_box_with_cue,images/light_grey_box,images/light_grey_box_with_target,images/light_grey_box,0,0.3,0.45,0,119,119,90,,,,,,,,,,,,,265.0184758999967,None,265.0184758999967,None,265.0184758999967,None,266.02962350001326,None,266.02962350001326,None,266.02962350001326,None,0.3,0.44999999999999996,266.2179139999789,266.3344397000037,266.2179139999789,266.3344397000037,266.2179139999789,266.3344397000037,space,0.21635359997162595,266.2179139999789,None,266.451688000001,None,5,001,2020_Apr_15_1939,experiment,2020.1.3,59.95840086580645,
