image_cue_1,image_cue_2,image_cue_3,image_target_1,image_target_2,image_target_3,targetStart,startTime,endTime,trials.thisRepN,trials.thisTrialN,trials.thisN,trials.thisIndex,textWelcome.started,textWelcome.stopped,keyWelcome.keys,keyWelcome.rt,keyWelcome.started,keyWelcome.stopped,textStart.started,textStart.stopped,keyStart.keys,keyStart.rt,keyStart.started,keyStart.stopped,imageTrailBefore_1.started,imageTrailBefore_1.stopped,imageTrialBefore_2.started,imageTrialBefore_2.stopped,imageTrialBefore_3.started,imageTrialBefore_3.stopped,imageTrialCue_1.started,imageTrialCue_1.stopped,imageTrialCue_2.started,imageTrialCue_2.stopped,imageTrialCue_3.started,imageTrialCue_3.stopped,TrialSceenTargetStart,TrialSceenTargetEnd,imageTrialTarget_1.started,imageTrialTarget_1.stopped,imageTrialTarget_2.started,imageTrialTarget_2.stopped,imageTrialTarget_3.started,imageTrialTarget_3.stopped,keyResponse.keys,keyResponse.rt,keyResponse.started,keyResponse.stopped,textBlank500.started,textBlank500.stopped,textEndSceen.started,textEndSceen.stopped,participant,session,date,expName,psychopyVersion,frameRate,
,,,,,,,,,,,,,14.059327027993277,None,space,62.95147106691729,14.059327027993277,None,,,,,,,,,,,,,,,,,,,,,,,,,,,,,,,,,,,6,001,2020_Apr_18_1832,experiment,2020.1.3,60.10801397192104,
,,,,,,,,,,,,,,,,,,,77.02407172799576,None,space,1.9196726750815287,77.02407172799576,None,,,,,,,,,,,,,,,,,,,,,,,,,,,,,6,001,2020_Apr_18_1832,experiment,2020.1.3,60.10801397192104,
images/light_grey_box,images/light_grey_box,images/light_grey_box,images/light_grey_box,images/light_grey_box_with_target,images/light_grey_box,0,0.5,0.65,0,0,0,113,,,,,,,,,,,,,78.99119061790407,None,78.99119061790407,None,78.99119061790407,None,79.98616009496618,None,79.98616009496618,None,79.98616009496618,None,0.2,0.35,80.23931273701601,80.3205184689723,80.23931273701601,80.3205184689723,80.23931273701601,80.3205184689723,space,0.45118351199198514,80.23931273701601,None,80.70496728399303,None,,,6,001,2020_Apr_18_1832,experiment,2020.1.3,60.10801397192104,
images/light_grey_box_with_cue,images/light_grey_box,images/light_grey_box,images/light_grey_box,images/light_grey_box_with_target,images/light_grey_box,0,0.1,0.25,0,1,1,41,,,,,,,,,,,,,81.20471885392908,None,81.20471885392908,None,81.20471885392908,None,82.235074014985,None,82.235074014985,None,82.235074014985,None,0.3,0.44999999999999996,82.40534964494873,82.60250598099083,82.40534964494873,82.60250598099083,82.40534964494873,82.60250598099083,space,3.683463413035497,82.40534964494873,None,86.10218320600688,None,,,6,001,2020_Apr_18_1832,experiment,2020.1.3,60.10801397192104,
images/light_grey_box_with_cue,images/light_grey_box,images/light_grey_box,images/light_grey_box,images/light_grey_box_with_target,images/light_grey_box,0,0.2,0.35,0,2,2,65,,,,,,,,,,,,,86.60351978195831,None,86.60351978195831,None,86.60351978195831,None,87.616609955905,None,87.616609955905,None,87.616609955905,None,0.1,0.25,87.85273693292402,87.96993792196736,87.85273693292402,87.96993792196736,87.85273693292402,87.96993792196736,space,0.3717161660315469,87.85273693292402,None,88.23724629590288,None,,,6,001,2020_Apr_18_1832,experiment,2020.1.3,60.10801397192104,
images/light_grey_box_with_cue,images/light_grey_box,images/light_grey_box,images/light_grey_box,images/light_grey_box,images/light_grey_box,0,0.3,0.45,0,3,3,88,,,,,,,,,,,,,88.7367941190023,None,88.7367941190023,None,88.7367941190023,None,89.7520930049941,None,89.7520930049941,None,89.7520930049941,None,0.05,0.2,89.9391506559914,90.07017995091155,89.9391506559914,90.07017995091155,89.9391506559914,90.07017995091155,space,0.2174163560848683,89.9391506559914,None,90.16993460198864,None,,,6,001,2020_Apr_18_1832,experiment,2020.1.3,60.10801397192104,
images/light_grey_box_with_cue,images/light_grey_box,images/light_grey_box,images/light_grey_box,images/light_grey_box,images/light_grey_box_with_target,0,0.3,0.45,0,4,4,87,,,,,,,,,,,,,90.67010872298852,None,90.67010872298852,None,90.67010872298852,None,91.68556069093756,None,91.68556069093756,None,91.68556069093756,None,0.2,0.35,91.90325482992921,92.08659192395862,91.90325482992921,92.08659192395862,91.90325482992921,92.08659192395862,space,0.45295143697876483,91.90325482992921,None,92.3703483119607,None,,,6,001,2020_Apr_18_1832,experiment,2020.1.3,60.10801397192104,
images/light_grey_box_with_cue,images/light_grey_box,images/light_grey_box,images/light_grey_box,images/light_grey_box_with_target,images/light_grey_box,0,0.05,0.2,0,5,5,22,,,,,,,,,,,,,92.8702440049965,None,92.8702440049965,None,92.8702440049965,None,93.88646223000251,None,93.88646223000251,None,93.88646223000251,None,0.0,0.15,94.07238120597322,94.20338718290441,94.07238120597322,94.20338718290441,94.07238120597322,94.20338718290441,space,0.46855182899162173,94.07238120597322,None,94.55326058494393,None,,,6,001,2020_Apr_18_1832,experiment,2020.1.3,60.10801397192104,
images/light_grey_box_with_cue,images/light_grey_box,images/light_grey_box,images/light_grey_box,images/light_grey_box,images/light_grey_box,0,0.1,0.25,0,6,6,48,,,,,,,,,,,,,95.05331125692464,None,95.05331125692464,None,95.05331125692464,None,96.06813682091888,None,96.06813682091888,None,96.06813682091888,None,0.3,0.44999999999999996,96.26944943901617,96.4532823789632,96.26944943901617,96.4532823789632,96.26944943901617,96.4532823789632,space,3.070384496008046,96.26944943901617,None,99.35283193993382,None,,,6,001,2020_Apr_18_1832,experiment,2020.1.3,60.10801397192104,
images/light_grey_box_with_cue,images/light_grey_box,images/light_grey_box,images/light_grey_box,images/light_grey_box_with_target,images/light_grey_box,0,0.3,0.45,0,7,7,84,,,,,,,,,,,,,99.85316644795239,None,99.85316644795239,None,99.85316644795239,None,100.86858697095886,None,100.86858697095886,None,100.86858697095886,None,0.05,0.2,101.12175206898246,101.23803856398445,101.12175206898246,101.23803856398445,101.12175206898246,101.23803856398445,space,0.3366855289787054,101.12175206898246,None,101.47364301700145,None,,,6,001,2020_Apr_18_1832,experiment,2020.1.3,60.10801397192104,
images/light_grey_box_with_cue,images/light_grey_box,images/light_grey_box,images/light_grey_box,images/light_grey_box_with_target,images/light_grey_box,0,0.5,0.65,0,8,8,101,,,,,,,,,,,,,101.98752765695099,None,101.98752765695099,None,101.98752765695099,None,103.00185891799629,None,103.00185891799629,None,103.00185891799629,None,0.05,0.2,103.16221325891092,103.43729018594604,103.16221325891092,103.43729018594604,103.16221325891092,103.43729018594604,space,0.34460428392048925,103.16221325891092,None,103.5199005039176,None,,,6,001,2020_Apr_18_1832,experiment,2020.1.3,60.10801397192104,
images/light_grey_box,images/light_grey_box,images/light_grey_box_with_cue,images/light_grey_box,images/light_grey_box_with_target,images/light_grey_box,0,0.5,0.65,0,9,9,110,,,,,,,,,,,,,104.02057771093678,None,104.02057771093678,None,104.02057771093678,None,105.0355258359341,None,105.0355258359341,None,105.0355258359341,None,0.05,0.2,105.27008653990924,105.35351950093172,105.27008653990924,105.35351950093172,105.27008653990924,105.35351950093172,space,0.3534814529120922,105.27008653990924,None,105.63718652399257,None,,,6,001,2020_Apr_18_1832,experiment,2020.1.3,60.10801397192104,
images/light_grey_box_with_cue,images/light_grey_box,images/light_grey_box,images/light_grey_box_with_target,images/light_grey_box,images/light_grey_box,0,0.0,0.15,0,10,10,6,,,,,,,,,,,,,106.1362829519203,None,106.1362829519203,None,106.1362829519203,None,107.15260216291063,None,107.15260216291063,None,107.15260216291063,None,0.0,0.15,107.40193275397178,107.50173784000799,107.40193275397178,107.50173784000799,107.40193275397178,107.50173784000799,space,0.3213264929363504,107.40193275397178,None,107.7369420309551,None,,,6,001,2020_Apr_18_1832,experiment,2020.1.3,60.10801397192104,
images/light_grey_box,images/light_grey_box,images/light_grey_box_with_cue,images/light_grey_box,images/light_grey_box_with_target,images/light_grey_box,0,0.05,0.2,0,11,11,31,,,,,,,,,,,,,108.23633479094133,None,108.23633479094133,None,108.23633479094133,None,109.25080593500752,None,109.25080593500752,None,109.25080593500752,None,0.5,0.65,109.42625089990906,109.60332758899312,109.42625089990906,109.60332758899312,109.42625089990906,109.60332758899312,space,0.21493865991942585,109.42625089990906,None,109.65543668391183,None,,,6,001,2020_Apr_18_1832,experiment,2020.1.3,60.10801397192104,
images/light_grey_box,images/light_grey_box,images/light_grey_box_with_cue,images/light_grey_box,images/light_grey_box,images/light_grey_box_with_target,0,0.05,0.2,0,12,12,37,,,,,,,,,,,,,110.16998243099079,None,110.16998243099079,None,110.16998243099079,None,111.18409994000103,None,111.18409994000103,None,111.18409994000103,None,0.0,0.15,111.38622024690267,111.51992153690662,111.38622024690267,111.51992153690662,111.38622024690267,111.51992153690662,space,0.37230182299390435,111.38622024690267,None,111.7706713139778,None,,,6,001,2020_Apr_18_1832,experiment,2020.1.3,60.10801397192104,
images/light_grey_box,images/light_grey_box,images/light_grey_box_with_cue,images/light_grey_box,images/light_grey_box_with_target,images/light_grey_box,0,0.2,0.35,0,13,13,71,,,,,,,,,,,,,112.26991522195749,None,112.26991522195749,None,112.26991522195749,None,113.2846654629102,None,113.2846654629102,None,113.2846654629102,None,0.05,0.2,113.4609712389065,113.65307997295167,113.4609712389065,113.65307997295167,113.4609712389065,113.65307997295167,space,0.25993513502180576,113.4609712389065,None,113.73571584594902,None,,,6,001,2020_Apr_18_1832,experiment,2020.1.3,60.10801397192104,
images/light_grey_box,images/light_grey_box,images/light_grey_box_with_cue,images/light_grey_box,images/light_grey_box_with_target,images/light_grey_box,0,0.05,0.2,0,14,14,30,,,,,,,,,,,,,114.23635720799211,None,114.23635720799211,None,114.23635720799211,None,115.2504123050021,None,115.2504123050021,None,115.2504123050021,None,0.3,0.44999999999999996,115.46931671490893,115.65296126401518,115.46931671490893,115.65296126401518,115.46931671490893,115.65296126401518,space,0.20404663705267012,115.46931671490893,None,115.68532215291634,None,,,6,001,2020_Apr_18_1832,experiment,2020.1.3,60.10801397192104,
images/light_grey_box_with_cue,images/light_grey_box,images/light_grey_box,images/light_grey_box,images/light_grey_box_with_target,images/light_grey_box,0,0.5,0.65,0,15,15,105,,,,,,,,,,,,,116.18623039301019,None,116.18623039301019,None,116.18623039301019,None,117.20135141396895,None,117.20135141396895,None,117.20135141396895,None,0.05,0.2,117.40067810495384,117.6032175149303,117.40067810495384,117.6032175149303,117.40067810495384,117.6032175149303,space,0.22295165900141,117.40067810495384,None,117.63642152491957,None,,,6,001,2020_Apr_18_1832,experiment,2020.1.3,60.10801397192104,
images/light_grey_box,images/light_grey_box,images/light_grey_box_with_cue,images/light_grey_box,images/light_grey_box,images/light_grey_box_with_target,0,0.0,0.15,0,16,16,17,,,,,,,,,,,,,118.13716769893654,None,118.13716769893654,None,118.13716769893654,None,119.15277491300367,None,119.15277491300367,None,119.15277491300367,None,0.1,0.25,119.35277865396347,119.48632803792134,119.35277865396347,119.48632803792134,119.35277865396347,119.48632803792134,space,0.43601298006251454,119.35277865396347,None,119.80177629599348,None,,,6,001,2020_Apr_18_1832,experiment,2020.1.3,60.10801397192104,
images/light_grey_box_with_cue,images/light_grey_box,images/light_grey_box,images/light_grey_box,images/light_grey_box_with_target,images/light_grey_box,0,0.05,0.2,0,17,17,21,,,,,,,,,,,,,120.30322273797356,None,120.30322273797356,None,120.30322273797356,None,121.3186101259198,None,121.3186101259198,None,121.3186101259198,None,0.2,0.35,121.49295580200851,121.6530683899764,121.49295580200851,121.6530683899764,121.49295580200851,121.6530683899764,space,0.44625276792794466,121.49295580200851,None,121.95297767291777,None,,,6,001,2020_Apr_18_1832,experiment,2020.1.3,60.10801397192104,
images/light_grey_box,images/light_grey_box,images/light_grey_box_with_cue,images/light_grey_box,images/light_grey_box,images/light_grey_box,0,0.0,0.15,0,18,18,19,,,,,,,,,,,,,122.4528754450148,None,122.4528754450148,None,122.4528754450148,None,123.46724242193159,None,123.46724242193159,None,123.46724242193159,None,0.2,0.35,123.6857104129158,123.81963420996908,123.6857104129158,123.81963420996908,123.6857104129158,123.81963420996908,space,2.6725841240258887,123.6857104129158,None,126.36993200995494,None,,,6,001,2020_Apr_18_1832,experiment,2020.1.3,60.10801397192104,
images/light_grey_box_with_cue,images/light_grey_box,images/light_grey_box,images/light_grey_box,images/light_grey_box_with_target,images/light_grey_box,0,0.2,0.35,0,19,19,61,,,,,,,,,,,,,126.86947901500389,None,126.86947901500389,None,126.86947901500389,None,127.88285464397632,None,127.88285464397632,None,127.88285464397632,None,0.2,0.35,128.13641540892422,128.23551503394265,128.13641540892422,128.23551503394265,128.13641540892422,128.23551503394265,space,0.320844589965418,128.13641540892422,None,128.47167720098514,None,,,6,001,2020_Apr_18_1832,experiment,2020.1.3,60.10801397192104,
images/light_grey_box,images/light_grey_box,images/light_grey_box,images/light_grey_box,images/light_grey_box_with_target,images/light_grey_box,0,0.05,0.2,0,20,20,36,,,,,,,,,,,,,128.9713071869919,None,128.9713071869919,None,128.9713071869919,None,129.9813242009841,None,129.9813242009841,None,129.9813242009841,None,0.2,0.35,130.20379061892163,130.3536161519587,130.20379061892163,130.3536161519587,130.20379061892163,130.3536161519587,space,0.3040362950414419,130.20379061892163,None,130.5214067969937,None,,,6,001,2020_Apr_18_1832,experiment,2020.1.3,60.10801397192104,
images/light_grey_box_with_cue,images/light_grey_box,images/light_grey_box,images/light_grey_box,images/light_grey_box,images/light_grey_box,0,0.3,0.45,0,21,21,89,,,,,,,,,,,,,131.0369019319769,None,131.0369019319769,None,131.0369019319769,None,132.0536127659725,None,132.0536127659725,None,132.0536127659725,None,0.2,0.35,132.28646719595417,132.3700941579882,132.28646719595417,132.3700941579882,132.28646719595417,132.3700941579882,space,0.3840046339901164,132.28646719595417,None,132.68657954898663,None,,,6,001,2020_Apr_18_1832,experiment,2020.1.3,60.10801397192104,
images/light_grey_box_with_cue,images/light_grey_box,images/light_grey_box,images/light_grey_box,images/light_grey_box,images/light_grey_box,0,0.2,0.35,0,22,22,69,,,,,,,,,,,,,133.1868356060004,None,133.1868356060004,None,133.1868356060004,None,134.2009380729869,None,134.2009380729869,None,134.2009380729869,None,0.1,0.25,134.4364870089339,134.61961857893039,134.4364870089339,134.61961857893039,134.4364870089339,134.61961857893039,space,7.169945487054065,134.4364870089339,None,141.6186364289606,None,,,6,001,2020_Apr_18_1832,experiment,2020.1.3,60.10801397192104,
images/light_grey_box_with_cue,images/light_grey_box,images/light_grey_box,images/light_grey_box_with_target,images/light_grey_box,images/light_grey_box,0,0.3,0.45,0,23,23,86,,,,,,,,,,,,,142.11922164191492,None,142.11922164191492,None,142.11922164191492,None,143.13267046096735,None,143.13267046096735,None,143.13267046096735,None,0.5,0.65,143.32373731699772,143.51921424199827,143.32373731699772,143.51921424199827,143.32373731699772,143.51921424199827,space,0.41740600496996194,143.32373731699772,None,143.75379003793932,None,,,6,001,2020_Apr_18_1832,experiment,2020.1.3,60.10801397192104,
images/light_grey_box,images/light_grey_box,images/light_grey_box_with_cue,images/light_grey_box,images/light_grey_box,images/light_grey_box,0,0.05,0.2,0,24,24,39,,,,,,,,,,,,,144.26929922995623,None,144.26929922995623,None,144.26929922995623,None,145.28312772500794,None,145.28312772500794,None,145.28312772500794,None,0.0,0.15,145.48549124097917,145.61941031191964,145.48549124097917,145.61941031191964,145.48549124097917,145.61941031191964,space,0.2057891460135579,145.48549124097917,None,145.70393810491078,None,,,6,001,2020_Apr_18_1832,experiment,2020.1.3,60.10801397192104,
images/light_grey_box,images/light_grey_box,images/light_grey_box_with_cue,images/light_grey_box,images/light_grey_box,images/light_grey_box,0,0.5,0.65,0,25,25,119,,,,,,,,,,,,,146.2187613119604,None,146.2187613119604,None,146.2187613119604,None,147.2331001519924,None,147.2331001519924,None,147.2331001519924,None,0.5,0.65,147.41877276694868,147.56924232991878,147.41877276694868,147.56924232991878,147.41877276694868,147.56924232991878,space,0.2708897510310635,147.41877276694868,None,147.7016471879324,None,,,6,001,2020_Apr_18_1832,experiment,2020.1.3,60.10801397192104,
images/light_grey_box_with_cue,images/light_grey_box,images/light_grey_box,images/light_grey_box,images/light_grey_box,images/light_grey_box_with_target,0,0.1,0.25,0,26,26,47,,,,,,,,,,,,,148.20248608395923,None,148.20248608395923,None,148.20248608395923,None,149.21764328691643,None,149.21764328691643,None,149.21764328691643,None,0.0,0.15,149.4068841759581,149.53613048396073,149.4068841759581,149.53613048396073,149.4068841759581,149.53613048396073,space,0.44965831097215414,149.4068841759581,None,149.86987601290457,None,,,6,001,2020_Apr_18_1832,experiment,2020.1.3,60.10801397192104,
images/light_grey_box,images/light_grey_box,images/light_grey_box_with_cue,images/light_grey_box,images/light_grey_box_with_target,images/light_grey_box,0,0.1,0.25,0,27,27,52,,,,,,,,,,,,,150.36930511891842,None,150.36930511891842,None,150.36930511891842,None,151.3851532629924,None,151.3851532629924,None,151.3851532629924,None,0.1,0.25,151.5600235859165,151.73614875494968,151.5600235859165,151.73614875494968,151.5600235859165,151.73614875494968,space,0.445646045031026,151.5600235859165,None,152.01938315597363,None,,,6,001,2020_Apr_18_1832,experiment,2020.1.3,60.10801397192104,
images/light_grey_box,images/light_grey_box,images/light_grey_box_with_cue,images/light_grey_box,images/light_grey_box_with_target,images/light_grey_box,0,0.0,0.15,0,28,28,15,,,,,,,,,,,,,152.51926112396177,None,152.51926112396177,None,152.51926112396177,None,153.5336390659213,None,153.5336390659213,None,153.5336390659213,None,0.05,0.2,153.7001106229145,153.83595113595948,153.7001106229145,153.83595113595948,153.7001106229145,153.83595113595948,space,0.3081676149740815,153.7001106229145,None,154.0221362329321,None,,,6,001,2020_Apr_18_1832,experiment,2020.1.3,60.10801397192104,
images/light_grey_box_with_cue,images/light_grey_box,images/light_grey_box,images/light_grey_box,images/light_grey_box,images/light_grey_box,0,0.0,0.15,0,29,29,8,,,,,,,,,,,,,154.53598441393115,None,154.53598441393115,None,154.53598441393115,None,155.5516750329407,None,155.5516750329407,None,155.5516750329407,None,0.0,0.15,155.69406049198005,155.8691132669337,155.69406049198005,155.8691132669337,155.69406049198005,155.8691132669337,space,4.847155645024031,155.69406049198005,None,160.55462750198785,None,,,6,001,2020_Apr_18_1832,experiment,2020.1.3,60.10801397192104,
images/light_grey_box_with_cue,images/light_grey_box,images/light_grey_box,images/light_grey_box,images/light_grey_box,images/light_grey_box,0,0.05,0.2,0,30,30,29,,,,,,,,,,,,,161.0540926469257,None,161.0540926469257,None,161.0540926469257,None,162.06834488699678,None,162.06834488699678,None,162.06834488699678,None,0.3,0.44999999999999996,162.28674663696438,162.38675199798308,162.28674663696438,162.38675199798308,162.28674663696438,162.38675199798308,space,4.903289110981859,162.28674663696438,None,167.20219296298455,None,,,6,001,2020_Apr_18_1832,experiment,2020.1.3,60.10801397192104,
images/light_grey_box,images/light_grey_box,images/light_grey_box_with_cue,images/light_grey_box,images/light_grey_box,images/light_grey_box_with_target,0,0.1,0.25,0,31,31,57,,,,,,,,,,,,,167.70227579190396,None,167.70227579190396,None,167.70227579190396,None,168.71694211801514,None,168.71694211801514,None,168.71694211801514,None,0.5,0.65,168.9058529289905,169.06903003598563,168.9058529289905,169.06903003598563,168.9058529289905,169.06903003598563,space,0.4333132989704609,168.9058529289905,None,169.35106211795937,None,,,6,001,2020_Apr_18_1832,experiment,2020.1.3,60.10801397192104,
images/light_grey_box_with_cue,images/light_grey_box,images/light_grey_box,images/light_grey_box,images/light_grey_box_with_target,images/light_grey_box,0,0.0,0.15,0,32,32,3,,,,,,,,,,,,,169.85235956101678,None,169.85235956101678,None,169.85235956101678,None,170.86849222390447,None,170.86849222390447,None,170.86849222390447,None,0.2,0.35,171.0423443489708,171.20257159194443,171.0423443489708,171.20257159194443,171.0423443489708,171.20257159194443,space,0.31467637000605464,171.0423443489708,None,171.37044937396422,None,,,6,001,2020_Apr_18_1832,experiment,2020.1.3,60.10801397192104,
images/light_grey_box,images/light_grey_box,images/light_grey_box_with_cue,images/light_grey_box,images/light_grey_box_with_target,images/light_grey_box,0,0.0,0.15,0,33,33,14,,,,,,,,,,,,,171.88565714401193,None,171.88565714401193,None,171.88565714401193,None,172.89946524694096,None,172.89946524694096,None,172.89946524694096,None,0.0,0.15,173.15234871499706,173.25218832690734,173.15234871499706,173.25218832690734,173.15234871499706,173.25218832690734,space,0.3057783429976553,173.15234871499706,None,173.47119124792516,None,,,6,001,2020_Apr_18_1832,experiment,2020.1.3,60.10801397192104,
images/light_grey_box_with_cue,images/light_grey_box,images/light_grey_box,images/light_grey_box,images/light_grey_box_with_target,images/light_grey_box,0,0.1,0.25,0,34,34,43,,,,,,,,,,,,,173.9855559259886,None,173.9855559259886,None,173.9855559259886,None,174.99981903191656,None,174.99981903191656,None,174.99981903191656,None,0.2,0.35,175.14980499690864,175.3355545999948,175.14980499690864,175.3355545999948,175.14980499690864,175.3355545999948,space,0.3057666509412229,175.14980499690864,None,175.46811935992446,None,,,6,001,2020_Apr_18_1832,experiment,2020.1.3,60.10801397192104,
images/light_grey_box_with_cue,images/light_grey_box,images/light_grey_box,images/light_grey_box,images/light_grey_box_with_target,images/light_grey_box,0,0.2,0.35,0,35,35,62,,,,,,,,,,,,,175.9689030839363,None,175.9689030839363,None,175.9689030839363,None,176.98410642298404,None,176.98410642298404,None,176.98410642298404,None,0.3,0.44999999999999996,177.18541232694406,177.30211747798603,177.18541232694406,177.30211747798603,177.18541232694406,177.30211747798603,space,0.2701992279617116,177.18541232694406,None,177.4680911420146,None,,,6,001,2020_Apr_18_1832,experiment,2020.1.3,60.10801397192104,
images/light_grey_box,images/light_grey_box,images/light_grey_box_with_cue,images/light_grey_box,images/light_grey_box_with_target,images/light_grey_box,0,0.05,0.2,0,36,36,32,,,,,,,,,,,,,177.96877372299787,None,177.96877372299787,None,177.96877372299787,None,178.98278238193598,None,178.98278238193598,None,178.98278238193598,None,0.5,0.65,179.14927752898075,179.33534249197692,179.14927752898075,179.33534249197692,179.14927752898075,179.33534249197692,space,0.30592075001914054,179.14927752898075,None,179.4679876039736,None,,,6,001,2020_Apr_18_1832,experiment,2020.1.3,60.10801397192104,
images/light_grey_box_with_cue,images/light_grey_box,images/light_grey_box,images/light_grey_box,images/light_grey_box_with_target,images/light_grey_box,0,0.3,0.45,0,37,37,82,,,,,,,,,,,,,179.96868575992994,None,179.96868575992994,None,179.96868575992994,None,180.98154748394154,None,180.98154748394154,None,180.98154748394154,None,0.2,0.35,181.2182758259587,181.31874977098778,181.2182758259587,181.31874977098778,181.2182758259587,181.31874977098778,space,0.32242520595900714,181.2182758259587,None,181.5534863169305,None,,,6,001,2020_Apr_18_1832,experiment,2020.1.3,60.10801397192104,
images/light_grey_box_with_cue,images/light_grey_box,images/light_grey_box,images/light_grey_box,images/light_grey_box_with_target,images/light_grey_box,0,0.3,0.45,0,38,38,83,,,,,,,,,,,,,182.06811555696186,None,182.06811555696186,None,182.06811555696186,None,183.0850106739672,None,183.0850106739672,None,183.0850106739672,None,0.3,0.44999999999999996,183.25597081100568,183.38562002999242,183.25597081100568,183.38562002999242,183.25597081100568,183.38562002999242,space,0.2668553090188652,183.25597081100568,None,183.53946670691948,None,,,6,001,2020_Apr_18_1832,experiment,2020.1.3,60.10801397192104,
images/light_grey_box,images/light_grey_box,images/light_grey_box_with_cue,images/light_grey_box,images/light_grey_box_with_target,images/light_grey_box,0,0.1,0.25,0,39,39,50,,,,,,,,,,,,,184.05358241999056,None,184.05358241999056,None,184.05358241999056,None,185.06870257190894,None,185.06870257190894,None,185.06870257190894,None,0.5,0.65,185.22774704894982,185.3529278349597,185.22774704894982,185.3529278349597,185.22774704894982,185.3529278349597,space,0.29570200794842094,185.22774704894982,None,185.53763341601007,None,,,6,001,2020_Apr_18_1832,experiment,2020.1.3,60.10801397192104,
images/light_grey_box,images/light_grey_box,images/light_grey_box,images/light_grey_box,images/light_grey_box_with_target,images/light_grey_box,0,0.2,0.35,0,40,40,73,,,,,,,,,,,,,186.05289976892527,None,186.05289976892527,None,186.05289976892527,None,187.06039892800618,None,187.06039892800618,None,187.06039892800618,None,0.3,0.44999999999999996,187.2857366539538,187.38588822900783,187.2857366539538,187.38588822900783,187.2857366539538,187.38588822900783,space,0.253512823022902,187.2857366539538,None,187.55241908493917,None,,,6,001,2020_Apr_18_1832,experiment,2020.1.3,60.10801397192104,
images/light_grey_box,images/light_grey_box,images/light_grey_box,images/light_grey_box,images/light_grey_box_with_target,images/light_grey_box,0,0.3,0.45,0,41,41,95,,,,,,,,,,,,,188.05259515997022,None,188.05259515997022,None,188.05259515997022,None,189.06093439494725,None,189.06093439494725,None,189.06093439494725,None,0.0,0.15,189.3517208689591,189.4354787429329,189.3517208689591,189.4354787429329,189.3517208689591,189.4354787429329,space,2.3873057399177924,189.3517208689591,None,191.75157092593145,None,,,6,001,2020_Apr_18_1832,experiment,2020.1.3,60.10801397192104,
images/light_grey_box_with_cue,images/light_grey_box,images/light_grey_box,images/light_grey_box_with_target,images/light_grey_box,images/light_grey_box,0,0.1,0.25,0,42,42,46,,,,,,,,,,,,,192.2518743899418,None,192.2518743899418,None,192.2518743899418,None,193.26720575499348,None,193.26720575499348,None,193.26720575499348,None,0.05,0.2,193.43377645197324,193.56918025691994,193.43377645197324,193.56918025691994,193.43377645197324,193.56918025691994,space,0.40535395010374486,193.43377645197324,None,193.8527915009763,None,,,6,001,2020_Apr_18_1832,experiment,2020.1.3,60.10801397192104,
images/light_grey_box_with_cue,images/light_grey_box,images/light_grey_box,images/light_grey_box,images/light_grey_box,images/light_grey_box,0,0.05,0.2,0,43,43,28,,,,,,,,,,,,,194.36882324097678,None,194.36882324097678,None,194.36882324097678,None,195.3869956569979,None,195.3869956569979,None,195.3869956569979,None,0.0,0.15,195.61876884894446,195.7188426789362,195.61876884894446,195.7188426789362,195.61876884894446,195.7188426789362,space,3.0374716370133683,195.61876884894446,None,198.67022076493595,None,,,6,001,2020_Apr_18_1832,experiment,2020.1.3,60.10801397192104,
images/light_grey_box,images/light_grey_box,images/light_grey_box,images/light_grey_box,images/light_grey_box_with_target,images/light_grey_box,0,0.2,0.35,0,44,44,74,,,,,,,,,,,,,199.1853428959148,None,199.1853428959148,None,199.1853428959148,None,200.1942964659538,None,200.1942964659538,None,200.1942964659538,None,0.3,0.44999999999999996,200.34949774795678,200.55207105295267,200.34949774795678,200.55207105295267,200.34949774795678,200.55207105295267,space,0.6240923119476065,200.34949774795678,None,200.98739324498456,None,,,6,001,2020_Apr_18_1832,experiment,2020.1.3,60.10801397192104,
images/light_grey_box_with_cue,images/light_grey_box,images/light_grey_box,images/light_grey_box,images/light_grey_box,images/light_grey_box,0,0.5,0.65,0,45,45,109,,,,,,,,,,,,,201.5020957379602,None,201.5020957379602,None,201.5020957379602,None,202.5174786269199,None,202.5174786269199,None,202.5174786269199,None,0.5,0.65,202.70194962399546,202.8687162719434,202.70194962399546,202.8687162719434,202.70194962399546,202.8687162719434,space,0.2032075939932838,202.70194962399546,None,202.91810162190814,None,,,6,001,2020_Apr_18_1832,experiment,2020.1.3,60.10801397192104,
images/light_grey_box,images/light_grey_box,images/light_grey_box_with_cue,images/light_grey_box_with_target,images/light_grey_box,images/light_grey_box,0,0.0,0.15,0,46,46,16,,,,,,,,,,,,,203.41862138092984,None,203.41862138092984,None,203.41862138092984,None,204.43275904201437,None,204.43275904201437,None,204.43275904201437,None,0.05,0.2,204.65164382301737,204.85200220893603,204.65164382301737,204.85200220893603,204.65164382301737,204.85200220893603,space,0.40414551203139126,204.65164382301737,None,205.07003547193017,None,,,6,001,2020_Apr_18_1832,experiment,2020.1.3,60.10801397192104,
images/light_grey_box,images/light_grey_box,images/light_grey_box,images/light_grey_box,images/light_grey_box_with_target,images/light_grey_box,0,0.3,0.45,0,47,47,96,,,,,,,,,,,,,205.5852898489684,None,205.5852898489684,None,205.5852898489684,None,206.5939239389263,None,206.5939239389263,None,206.5939239389263,None,0.1,0.25,206.80157497699838,206.88577246898785,206.80157497699838,206.88577246898785,206.80157497699838,206.88577246898785,space,0.3370103529887274,206.80157497699838,None,207.1516960299341,None,,,6,001,2020_Apr_18_1832,experiment,2020.1.3,60.10801397192104,
images/light_grey_box,images/light_grey_box,images/light_grey_box_with_cue,images/light_grey_box,images/light_grey_box_with_target,images/light_grey_box,0,0.2,0.35,0,48,48,70,,,,,,,,,,,,,207.6521683249157,None,207.6521683249157,None,207.6521683249157,None,208.66633697098587,None,208.66633697098587,None,208.66633697098587,None,0.3,0.44999999999999996,208.83258153893985,209.0353098459309,208.83258153893985,209.0353098459309,208.83258153893985,209.0353098459309,space,0.3402363029308617,208.83258153893985,None,209.1854854709236,None,,,6,001,2020_Apr_18_1832,experiment,2020.1.3,60.10801397192104,
images/light_grey_box_with_cue,images/light_grey_box,images/light_grey_box,images/light_grey_box,images/light_grey_box,images/light_grey_box_with_target,0,0.05,0.2,0,49,49,27,,,,,,,,,,,,,209.68514701293316,None,209.68514701293316,None,209.68514701293316,None,210.70173259195872,None,210.70173259195872,None,210.70173259195872,None,0.05,0.2,210.875191877014,211.13694084400777,210.875191877014,211.13694084400777,210.875191877014,211.13694084400777,space,0.38227361405733973,210.875191877014,None,211.27088042895775,None,,,6,001,2020_Apr_18_1832,experiment,2020.1.3,60.10801397192104,
images/light_grey_box_with_cue,images/light_grey_box,images/light_grey_box,images/light_grey_box,images/light_grey_box_with_target,images/light_grey_box,0,0.0,0.15,0,50,50,5,,,,,,,,,,,,,211.7862981519429,None,211.7862981519429,None,211.7862981519429,None,212.8011296769837,None,212.8011296769837,None,212.8011296769837,None,0.3,0.44999999999999996,213.0024650619598,213.1026905089384,213.0024650619598,213.1026905089384,213.0024650619598,213.1026905089384,space,0.37136449001263827,213.0024650619598,None,213.38665134098846,None,,,6,001,2020_Apr_18_1832,experiment,2020.1.3,60.10801397192104,
images/light_grey_box,images/light_grey_box,images/light_grey_box_with_cue,images/light_grey_box,images/light_grey_box_with_target,images/light_grey_box,0,0.0,0.15,0,51,51,10,,,,,,,,,,,,,213.88605540490244,None,213.88605540490244,None,213.88605540490244,None,214.90097249299288,None,214.90097249299288,None,214.90097249299288,None,0.0,0.15,215.07611578993965,215.2687681929674,215.07611578993965,215.2687681929674,215.07611578993965,215.2687681929674,space,0.3309151349822059,215.07611578993965,None,215.42059860995505,None,,,6,001,2020_Apr_18_1832,experiment,2020.1.3,60.10801397192104,
images/light_grey_box_with_cue,images/light_grey_box,images/light_grey_box,images/light_grey_box,images/light_grey_box_with_target,images/light_grey_box,0,0.5,0.65,0,52,52,100,,,,,,,,,,,,,215.9354076589225,None,215.9354076589225,None,215.9354076589225,None,216.94948484096676,None,216.94948484096676,None,216.94948484096676,None,0.1,0.25,217.21833539393265,217.2837975929724,217.21833539393265,217.2837975929724,217.21833539393265,217.2837975929724,space,0.318711269996129,217.21833539393265,None,217.55001637595706,None,,,6,001,2020_Apr_18_1832,experiment,2020.1.3,60.10801397192104,
images/light_grey_box,images/light_grey_box,images/light_grey_box_with_cue,images/light_grey_box,images/light_grey_box,images/light_grey_box,0,0.1,0.25,0,53,53,58,,,,,,,,,,,,,218.05159027292393,None,218.05159027292393,None,218.05159027292393,None,219.06533077196218,None,219.06533077196218,None,219.06533077196218,None,0.5,0.65,219.28411343391053,219.3849318959983,219.28411343391053,219.3849318959983,219.28411343391053,219.3849318959983,space,0.2183796539902687,219.28411343391053,None,219.5171298990026,None,,,6,001,2020_Apr_18_1832,experiment,2020.1.3,60.10801397192104,
images/light_grey_box,images/light_grey_box,images/light_grey_box_with_cue,images/light_grey_box,images/light_grey_box,images/light_grey_box,0,0.3,0.45,0,54,54,99,,,,,,,,,,,,,220.01735458592884,None,220.01735458592884,None,220.01735458592884,None,221.0337584449444,None,221.0337584449444,None,221.0337584449444,None,0.5,0.65,221.23436189698987,221.40170424897224,221.23436189698987,221.40170424897224,221.23436189698987,221.40170424897224,space,3.004541822941974,221.23436189698987,None,224.25105637090746,None,,,6,001,2020_Apr_18_1832,experiment,2020.1.3,60.10801397192104,
images/light_grey_box_with_cue,images/light_grey_box,images/light_grey_box,images/light_grey_box,images/light_grey_box_with_target,images/light_grey_box,0,0.05,0.2,0,55,55,20,,,,,,,,,,,,,224.75170898693614,None,224.75170898693614,None,224.75170898693614,None,225.76417892694008,None,225.76417892694008,None,225.76417892694008,None,0.1,0.25,225.94119064393453,226.1017030759249,225.94119064393453,226.1017030759249,225.94119064393453,226.1017030759249,space,0.41467521199956536,225.94119064393453,None,226.3700636869762,None,,,6,001,2020_Apr_18_1832,experiment,2020.1.3,60.10801397192104,
images/light_grey_box_with_cue,images/light_grey_box,images/light_grey_box,images/light_grey_box,images/light_grey_box_with_target,images/light_grey_box,0,0.0,0.15,0,56,56,2,,,,,,,,,,,,,226.88505237700883,None,226.88505237700883,None,226.88505237700883,None,227.8995817899704,None,227.8995817899704,None,227.8995817899704,None,0.3,0.44999999999999996,228.0845874369843,228.31768833193928,228.0845874369843,228.31768833193928,228.0845874369843,228.31768833193928,space,0.3541014390066266,228.0845874369843,None,228.45177533698734,None,,,6,001,2020_Apr_18_1832,experiment,2020.1.3,60.10801397192104,
images/light_grey_box_with_cue,images/light_grey_box,images/light_grey_box,images/light_grey_box,images/light_grey_box,images/light_grey_box,0,0.1,0.25,0,57,57,49,,,,,,,,,,,,,228.95154463290237,None,228.95154463290237,None,228.95154463290237,None,229.96592481795233,None,229.96592481795233,None,229.96592481795233,None,0.1,0.25,230.20196934090927,230.36860052496195,230.20196934090927,230.36860052496195,230.20196934090927,230.36860052496195,space,2.5887260030722246,230.20196934090927,None,232.80360100697726,None,,,6,001,2020_Apr_18_1832,experiment,2020.1.3,60.10801397192104,
images/light_grey_box,images/light_grey_box,images/light_grey_box_with_cue,images/light_grey_box,images/light_grey_box_with_target,images/light_grey_box,0,0.5,0.65,0,58,58,112,,,,,,,,,,,,,233.31862525094766,None,233.31862525094766,None,233.31862525094766,None,234.33245607092977,None,234.33245607092977,None,234.33245607092977,None,0.2,0.35,234.51751047791913,234.63470027793664,234.51751047791913,234.63470027793664,234.51751047791913,234.63470027793664,space,0.38571406400296837,234.51751047791913,None,234.91742397390772,None,,,6,001,2020_Apr_18_1832,experiment,2020.1.3,60.10801397192104,
images/light_grey_box,images/light_grey_box,images/light_grey_box,images/light_grey_box,images/light_grey_box_with_target,images/light_grey_box,0,0.05,0.2,0,59,59,34,,,,,,,,,,,,,235.41798508295324,None,235.41798508295324,None,235.41798508295324,None,236.42498537397478,None,236.42498537397478,None,236.42498537397478,None,0.5,0.65,236.6210227359552,236.80139223800506,236.6210227359552,236.80139223800506,236.6210227359552,236.80139223800506,space,0.4324616000521928,236.6210227359552,None,237.06715689995326,None,,,6,001,2020_Apr_18_1832,experiment,2020.1.3,60.10801397192104,
images/light_grey_box_with_cue,images/light_grey_box,images/light_grey_box,images/light_grey_box,images/light_grey_box_with_target,images/light_grey_box,0,0.0,0.15,0,60,60,4,,,,,,,,,,,,,237.5680567260133,None,237.5680567260133,None,237.5680567260133,None,238.5836512959795,None,238.5836512959795,None,238.5836512959795,None,0.2,0.35,238.86799908499233,238.95145074394532,238.86799908499233,238.95145074394532,238.86799908499233,238.95145074394532,space,0.37235139997210354,238.86799908499233,None,239.25404197792523,None,,,6,001,2020_Apr_18_1832,experiment,2020.1.3,60.10801397192104,
images/light_grey_box,images/light_grey_box,images/light_grey_box,images/light_grey_box,images/light_grey_box_with_target,images/light_grey_box,0,0.1,0.25,0,61,61,53,,,,,,,,,,,,,239.7536112399539,None,239.7536112399539,None,239.7536112399539,None,240.76311757194344,None,240.76311757194344,None,240.76311757194344,None,0.3,0.44999999999999996,240.94208398694173,241.06848392495885,240.94208398694173,241.06848392495885,240.94208398694173,241.06848392495885,space,0.5475367900216952,240.94208398694173,None,241.50370838399976,None,,,6,001,2020_Apr_18_1832,experiment,2020.1.3,60.10801397192104,
images/light_grey_box_with_cue,images/light_grey_box,images/light_grey_box,images/light_grey_box,images/light_grey_box_with_target,images/light_grey_box,0,0.5,0.65,0,62,62,104,,,,,,,,,,,,,242.018160882988,None,242.018160882988,None,242.018160882988,None,243.0313229749445,None,243.0313229749445,None,243.0313229749445,None,0.3,0.44999999999999996,243.2182675600052,243.33492527599446,243.2182675600052,243.33492527599446,243.2182675600052,243.33492527599446,space,0.48777154297567904,243.2182675600052,None,243.71902175992727,None,,,6,001,2020_Apr_18_1832,experiment,2020.1.3,60.10801397192104,
images/light_grey_box,images/light_grey_box,images/light_grey_box_with_cue,images/light_grey_box,images/light_grey_box,images/light_grey_box,0,0.2,0.35,0,63,63,79,,,,,,,,,,,,,244.21827468497213,None,244.21827468497213,None,244.21827468497213,None,245.23017041792627,None,245.23017041792627,None,245.23017041792627,None,0.5,0.65,245.43329978897236,245.58348167897202,245.43329978897236,245.58348167897202,245.43329978897236,245.58348167897202,space,3.0715965250274166,245.43329978897236,None,248.51714156696107,None,,,6,001,2020_Apr_18_1832,experiment,2020.1.3,60.10801397192104,
images/light_grey_box_with_cue,images/light_grey_box,images/light_grey_box,images/light_grey_box_with_target,images/light_grey_box,images/light_grey_box,0,0.5,0.65,0,64,64,106,,,,,,,,,,,,,249.01790297590196,None,249.01790297590196,None,249.01790297590196,None,250.03230927197728,None,250.03230927197728,None,250.03230927197728,None,0.05,0.2,250.23499766399618,250.36787951691076,250.23499766399618,250.36787951691076,250.23499766399618,250.36787951691076,space,0.269443467957899,250.23499766399618,None,250.51667146093678,None,,,6,001,2020_Apr_18_1832,experiment,2020.1.3,60.10801397192104,
images/light_grey_box_with_cue,images/light_grey_box,images/light_grey_box,images/light_grey_box,images/light_grey_box,images/light_grey_box,0,0.5,0.65,0,65,65,108,,,,,,,,,,,,,251.0179106949363,None,251.0179106949363,None,251.0179106949363,None,252.03229993593413,None,252.03229993593413,None,252.03229993593413,None,0.0,0.15,252.19387693400495,252.3344830389833,252.19387693400495,252.3344830389833,252.19387693400495,252.3344830389833,space,4.128970555961132,252.19387693400495,None,256.33660513698123,None,,,6,001,2020_Apr_18_1832,experiment,2020.1.3,60.10801397192104,
images/light_grey_box_with_cue,images/light_grey_box,images/light_grey_box,images/light_grey_box,images/light_grey_box_with_target,images/light_grey_box,0,0.05,0.2,0,66,66,25,,,,,,,,,,,,,256.8512156789657,None,256.8512156789657,None,256.8512156789657,None,257.8639957240084,None,257.8639957240084,None,257.8639957240084,None,0.0,0.15,258.05044588190503,258.2175282809185,258.05044588190503,258.2175282809185,258.05044588190503,258.2175282809185,space,0.3850805260008201,258.05044588190503,None,258.4501162869856,None,,,6,001,2020_Apr_18_1832,experiment,2020.1.3,60.10801397192104,
images/light_grey_box,images/light_grey_box,images/light_grey_box_with_cue,images/light_grey_box,images/light_grey_box,images/light_grey_box,0,0.0,0.15,0,67,67,18,,,,,,,,,,,,,258.9510743129067,None,258.9510743129067,None,258.9510743129067,None,259.964663421968,None,259.964663421968,None,259.964663421968,None,0.0,0.15,260.13967202196363,260.28432079893537,260.13967202196363,260.28432079893537,260.13967202196363,260.28432079893537,space,3.8655897729331627,260.13967202196363,None,264.01775926793925,None,,,6,001,2020_Apr_18_1832,experiment,2020.1.3,60.10801397192104,
images/light_grey_box_with_cue,images/light_grey_box,images/light_grey_box,images/light_grey_box,images/light_grey_box_with_target,images/light_grey_box,0,0.3,0.45,0,68,68,80,,,,,,,,,,,,,264.51767740992364,None,264.51767740992364,None,264.51767740992364,None,265.53310652193613,None,265.53310652193613,None,265.53310652193613,None,0.05,0.2,265.7188315629028,265.88428529095836,265.7188315629028,265.88428529095836,265.7188315629028,265.88428529095836,space,0.35214209998957813,265.7188315629028,None,266.087363502942,None,,,6,001,2020_Apr_18_1832,experiment,2020.1.3,60.10801397192104,
images/light_grey_box_with_cue,images/light_grey_box,images/light_grey_box,images/light_grey_box_with_target,images/light_grey_box,images/light_grey_box,0,0.2,0.35,0,69,69,66,,,,,,,,,,,,,266.6030358939897,None,266.6030358939897,None,266.6030358939897,None,267.61703225492965,None,267.61703225492965,None,267.61703225492965,None,0.0,0.15,267.81856158399023,267.93534557300154,267.81856158399023,267.93534557300154,267.81856158399023,267.93534557300154,space,0.452903933939524,267.81856158399023,None,268.285169997951,None,,,6,001,2020_Apr_18_1832,experiment,2020.1.3,60.10801397192104,
images/light_grey_box_with_cue,images/light_grey_box,images/light_grey_box,images/light_grey_box,images/light_grey_box,images/light_grey_box_with_target,0,0.0,0.15,0,70,70,7,,,,,,,,,,,,,268.7856354189571,None,268.7856354189571,None,268.7856354189571,None,269.799734022934,None,269.799734022934,None,269.799734022934,None,0.0,0.15,269.9656349879224,270.0850825989619,269.9656349879224,270.0850825989619,269.9656349879224,270.0850825989619,space,0.4223652520449832,269.9656349879224,None,270.40107208199333,None,,,6,001,2020_Apr_18_1832,experiment,2020.1.3,60.10801397192104,
images/light_grey_box,images/light_grey_box,images/light_grey_box,images/light_grey_box,images/light_grey_box_with_target,images/light_grey_box,0,0.2,0.35,0,71,71,75,,,,,,,,,,,,,270.90145954699256,None,270.90145954699256,None,270.90145954699256,None,271.90961871494073,None,271.90961871494073,None,271.90961871494073,None,0.1,0.25,272.16649541200604,272.284216450993,272.16649541200604,272.284216450993,272.16649541200604,272.284216450993,space,0.38697976106777787,272.16649541200604,None,272.5659555689199,None,,,6,001,2020_Apr_18_1832,experiment,2020.1.3,60.10801397192104,
images/light_grey_box,images/light_grey_box,images/light_grey_box,images/light_grey_box,images/light_grey_box_with_target,images/light_grey_box,0,0.1,0.25,0,72,72,56,,,,,,,,,,,,,273.0667246679077,None,273.0667246679077,None,273.0667246679077,None,274.0736486389069,None,274.0736486389069,None,274.0736486389069,None,0.05,0.2,274.300397761981,274.4508365789661,274.300397761981,274.4508365789661,274.300397761981,274.4508365789661,space,0.387689188006334,274.300397761981,None,274.70106825290713,None,,,6,001,2020_Apr_18_1832,experiment,2020.1.3,60.10801397192104,
images/light_grey_box,images/light_grey_box,images/light_grey_box,images/light_grey_box,images/light_grey_box_with_target,images/light_grey_box,0,0.2,0.35,0,73,73,76,,,,,,,,,,,,,275.2009804409463,None,275.2009804409463,None,275.2009804409463,None,276.2097618149128,None,276.2097618149128,None,276.2097618149128,None,0.5,0.65,276.40652016794775,276.51770778000355,276.40652016794775,276.51770778000355,276.40652016794775,276.51770778000355,space,0.44999098300468177,276.40652016794775,None,276.8686715050135,None,,,6,001,2020_Apr_18_1832,experiment,2020.1.3,60.10801397192104,
images/light_grey_box,images/light_grey_box,images/light_grey_box,images/light_grey_box,images/light_grey_box_with_target,images/light_grey_box,0,0.5,0.65,0,74,74,115,,,,,,,,,,,,,277.384380478994,None,277.384380478994,None,277.384380478994,None,278.39306983095594,None,278.39306983095594,None,278.39306983095594,None,0.3,0.44999999999999996,278.5840382910101,278.7174589369679,278.5840382910101,278.7174589369679,278.5840382910101,278.7174589369679,space,0.40334006503690034,278.5840382910101,None,278.9999759399798,None,,,6,001,2020_Apr_18_1832,experiment,2020.1.3,60.10801397192104,
images/light_grey_box,images/light_grey_box,images/light_grey_box_with_cue,images/light_grey_box,images/light_grey_box,images/light_grey_box,0,0.2,0.35,0,75,75,78,,,,,,,,,,,,,279.5008379749488,None,279.5008379749488,None,279.5008379749488,None,280.51079178298824,None,280.51079178298824,None,280.51079178298824,None,0.05,0.2,280.7331949439831,280.916686455952,280.7331949439831,280.916686455952,280.7331949439831,280.916686455952,space,4.104753273073584,280.7331949439831,None,284.85003717499785,None,,,6,001,2020_Apr_18_1832,experiment,2020.1.3,60.10801397192104,
images/light_grey_box,images/light_grey_box,images/light_grey_box_with_cue,images/light_grey_box,images/light_grey_box,images/light_grey_box_with_target,0,0.3,0.45,0,76,76,97,,,,,,,,,,,,,285.3518485169625,None,285.3518485169625,None,285.3518485169625,None,286.37667654501274,None,286.37667654501274,None,286.37667654501274,None,0.0,0.15,286.5518194169272,286.70019038394094,286.5518194169272,286.70019038394094,286.5518194169272,286.70019038394094,space,0.5345512609928846,286.5518194169272,None,287.09955929301213,None,,,6,001,2020_Apr_18_1832,experiment,2020.1.3,60.10801397192104,
images/light_grey_box,images/light_grey_box,images/light_grey_box_with_cue,images/light_grey_box,images/light_grey_box,images/light_grey_box,0,0.05,0.2,0,77,77,38,,,,,,,,,,,,,287.60014860192314,None,287.60014860192314,None,287.60014860192314,None,288.61044584796764,None,288.61044584796764,None,288.61044584796764,None,0.1,0.25,288.8668354989495,289.03355253394693,288.8668354989495,289.03355253394693,288.8668354989495,289.03355253394693,space,3.8372513179201633,288.8668354989495,None,292.7163808939513,None,,,6,001,2020_Apr_18_1832,experiment,2020.1.3,60.10801397192104,
images/light_grey_box,images/light_grey_box,images/light_grey_box_with_cue,images/light_grey_box,images/light_grey_box,images/light_grey_box,0,0.3,0.45,0,78,78,98,,,,,,,,,,,,,293.22057676990516,None,293.22057676990516,None,293.22057676990516,None,294.2506745249266,None,294.2506745249266,None,294.2506745249266,None,0.3,0.44999999999999996,294.4349718139274,294.6183529769769,294.4349718139274,294.6183529769769,294.4349718139274,294.6183529769769,space,4.070535248029046,294.4349718139274,None,298.5198720569024,None,,,6,001,2020_Apr_18_1832,experiment,2020.1.3,60.10801397192104,
images/light_grey_box_with_cue,images/light_grey_box,images/light_grey_box,images/light_grey_box,images/light_grey_box_with_target,images/light_grey_box,0,0.05,0.2,0,79,79,24,,,,,,,,,,,,,299.03494820091873,None,299.03494820091873,None,299.03494820091873,None,300.04863697092514,None,300.04863697092514,None,300.04863697092514,None,0.1,0.25,300.2227469239151,300.35144171491265,300.2227469239151,300.35144171491265,300.2227469239151,300.35144171491265,space,0.4805071729933843,300.2227469239151,None,300.7176542459056,None,,,6,001,2020_Apr_18_1832,experiment,2020.1.3,60.10801397192104,
images/light_grey_box,images/light_grey_box,images/light_grey_box_with_cue,images/light_grey_box,images/light_grey_box_with_target,images/light_grey_box,0,0.1,0.25,0,80,80,51,,,,,,,,,,,,,301.21788371994626,None,301.21788371994626,None,301.21788371994626,None,302.2474731839029,None,302.2474731839029,None,302.2474731839029,None,0.3,0.44999999999999996,302.50049994292203,302.53371707792394,302.50049994292203,302.53371707792394,302.50049994292203,302.53371707792394,space,0.4023911099648103,302.50049994292203,None,302.91587915993296,None,,,6,001,2020_Apr_18_1832,experiment,2020.1.3,60.10801397192104,
images/light_grey_box_with_cue,images/light_grey_box,images/light_grey_box,images/light_grey_box,images/light_grey_box_with_target,images/light_grey_box,0,0.5,0.65,0,81,81,103,,,,,,,,,,,,,303.41709875990637,None,303.41709875990637,None,303.41709875990637,None,304.43220625096,None,304.43220625096,None,304.43220625096,None,0.3,0.44999999999999996,304.59740000695456,304.816719012917,304.59740000695456,304.816719012917,304.59740000695456,304.816719012917,space,0.6394132069544867,304.59740000695456,None,305.2502441109391,None,,,6,001,2020_Apr_18_1832,experiment,2020.1.3,60.10801397192104,
images/light_grey_box_with_cue,images/light_grey_box,images/light_grey_box,images/light_grey_box_with_target,images/light_grey_box,images/light_grey_box,0,0.05,0.2,0,82,82,26,,,,,,,,,,,,,305.7506310569588,None,305.7506310569588,None,305.7506310569588,None,306.7667801500065,None,306.7667801500065,None,306.7667801500065,None,0.05,0.2,306.9328051150078,307.1337384749204,306.9328051150078,307.1337384749204,306.9328051150078,307.1337384749204,space,0.5896926829591393,306.9328051150078,None,307.5340914929984,None,,,6,001,2020_Apr_18_1832,experiment,2020.1.3,60.10801397192104,
images/light_grey_box_with_cue,images/light_grey_box,images/light_grey_box,images/light_grey_box,images/light_grey_box_with_target,images/light_grey_box,0,0.1,0.25,0,83,83,45,,,,,,,,,,,,,308.0336395939812,None,308.0336395939812,None,308.0336395939812,None,309.0463961769128,None,309.0463961769128,None,309.0463961769128,None,0.2,0.35,309.22376397100743,309.41725943400525,309.22376397100743,309.41725943400525,309.22376397100743,309.41725943400525,space,0.38167173601686954,309.22376397100743,None,309.6193549570162,None,,,6,001,2020_Apr_18_1832,experiment,2020.1.3,60.10801397192104,
images/light_grey_box,images/light_grey_box,images/light_grey_box,images/light_grey_box,images/light_grey_box_with_target,images/light_grey_box,0,0.5,0.65,0,84,84,116,,,,,,,,,,,,,310.1339591629803,None,310.1339591629803,None,310.1339591629803,None,311.14193660591263,None,311.14193660591263,None,311.14193660591263,None,0.2,0.35,311.3832270159619,311.5839917289559,311.3832270159619,311.5839917289559,311.3832270159619,311.5839917289559,space,0.4038807079195976,311.3832270159619,None,311.79968904692214,None,,,6,001,2020_Apr_18_1832,experiment,2020.1.3,60.10801397192104,
images/light_grey_box,images/light_grey_box,images/light_grey_box,images/light_grey_box,images/light_grey_box_with_target,images/light_grey_box,0,0.3,0.45,0,85,85,93,,,,,,,,,,,,,312.3004452829482,None,312.3004452829482,None,312.3004452829482,None,313.30893013696186,None,313.30893013696186,None,313.30893013696186,None,0.1,0.25,313.4810387309408,313.7004018079024,313.4810387309408,313.7004018079024,313.4810387309408,313.7004018079024,space,0.4557746700011194,313.4810387309408,None,313.9503265710082,None,,,6,001,2020_Apr_18_1832,experiment,2020.1.3,60.10801397192104,
images/light_grey_box_with_cue,images/light_grey_box,images/light_grey_box,images/light_grey_box,images/light_grey_box_with_target,images/light_grey_box,0,0.2,0.35,0,86,86,60,,,,,,,,,,,,,314.4504403239116,None,314.4504403239116,None,314.4504403239116,None,315.4653192500118,None,315.4653192500118,None,315.4653192500118,None,0.0,0.15,315.73388790199533,315.81703765993007,315.73388790199533,315.81703765993007,315.73388790199533,315.81703765993007,space,0.5036410030443221,315.73388790199533,None,316.251187441987,None,,,6,001,2020_Apr_18_1832,experiment,2020.1.3,60.10801397192104,
images/light_grey_box,images/light_grey_box,images/light_grey_box_with_cue,images/light_grey_box,images/light_grey_box_with_target,images/light_grey_box,0,0.5,0.65,0,87,87,111,,,,,,,,,,,,,316.75047562399413,None,316.75047562399413,None,316.75047562399413,None,317.7632804349996,None,317.7632804349996,None,317.7632804349996,None,0.1,0.25,318.00010189099703,318.10049190791324,318.00010189099703,318.10049190791324,318.00010189099703,318.10049190791324,space,0.4224077829858288,318.00010189099703,None,318.43460822990164,None,,,6,001,2020_Apr_18_1832,experiment,2020.1.3,60.10801397192104,
images/light_grey_box_with_cue,images/light_grey_box,images/light_grey_box,images/light_grey_box,images/light_grey_box_with_target,images/light_grey_box,0,0.2,0.35,0,88,88,63,,,,,,,,,,,,,318.9336951159639,None,318.9336951159639,None,318.9336951159639,None,319.9473172869766,None,319.9473172869766,None,319.9473172869766,None,0.05,0.2,320.11409111495595,320.33356980397366,320.11409111495595,320.33356980397366,320.11409111495595,320.33356980397366,space,0.4917696421034634,320.11409111495595,None,320.6200850899331,None,,,6,001,2020_Apr_18_1832,experiment,2020.1.3,60.10801397192104,
images/light_grey_box_with_cue,images/light_grey_box,images/light_grey_box,images/light_grey_box,images/light_grey_box_with_target,images/light_grey_box,0,0.05,0.2,0,89,89,23,,,,,,,,,,,,,321.13487530092243,None,321.13487530092243,None,321.13487530092243,None,322.14827420492657,None,322.14827420492657,None,322.14827420492657,None,0.1,0.25,322.3356530199526,322.5676651309477,322.3356530199526,322.5676651309477,322.3356530199526,322.5676651309477,space,0.41942406399175525,322.3356530199526,None,322.7692551279906,None,,,6,001,2020_Apr_18_1832,experiment,2020.1.3,60.10801397192104,
images/light_grey_box_with_cue,images/light_grey_box,images/light_grey_box,images/light_grey_box,images/light_grey_box_with_target,images/light_grey_box,0,0.1,0.25,0,90,90,42,,,,,,,,,,,,,323.28439015790354,None,323.28439015790354,None,323.28439015790354,None,324.29725267598405,None,324.29725267598405,None,324.29725267598405,None,0.0,0.15,324.44692947890144,324.6173902769806,324.44692947890144,324.6173902769806,324.44692947890144,324.6173902769806,space,0.35687255300581455,324.44692947890144,None,324.81704131292645,None,,,6,001,2020_Apr_18_1832,experiment,2020.1.3,60.10801397192104,
images/light_grey_box,images/light_grey_box,images/light_grey_box_with_cue,images/light_grey_box,images/light_grey_box_with_target,images/light_grey_box,0,0.3,0.45,0,91,91,92,,,,,,,,,,,,,325.31746095698327,None,325.31746095698327,None,325.31746095698327,None,326.3303428950021,None,326.3303428950021,None,326.3303428950021,None,0.3,0.44999999999999996,326.49618667992763,326.69902435690165,326.49618667992763,326.69902435690165,326.49618667992763,326.69902435690165,space,0.538993899943307,326.49618667992763,None,327.0485612329794,None,,,6,001,2020_Apr_18_1832,experiment,2020.1.3,60.10801397192104,
images/light_grey_box_with_cue,images/light_grey_box,images/light_grey_box,images/light_grey_box,images/light_grey_box,images/light_grey_box,0,0.2,0.35,0,92,92,68,,,,,,,,,,,,,327.5501259259181,None,327.5501259259181,None,327.5501259259181,None,328.5643858879339,None,328.5643858879339,None,328.5643858879339,None,0.05,0.2,328.76602565997746,328.90007146191783,328.76602565997746,328.90007146191783,328.76602565997746,328.90007146191783,space,3.620459052035585,328.76602565997746,None,332.3998337009689,None,,,6,001,2020_Apr_18_1832,experiment,2020.1.3,60.10801397192104,
images/light_grey_box,images/light_grey_box,images/light_grey_box_with_cue,images/light_grey_box,images/light_grey_box,images/light_grey_box_with_target,0,0.5,0.65,0,93,93,117,,,,,,,,,,,,,332.899985475,None,332.899985475,None,332.899985475,None,333.91022669593804,None,333.91022669593804,None,333.91022669593804,None,0.1,0.25,334.0883046189556,334.28339346300345,334.0883046189556,334.28339346300345,334.0883046189556,334.28339346300345,space,0.5155461190734059,334.0883046189556,None,334.616670657997,None,,,6,001,2020_Apr_18_1832,experiment,2020.1.3,60.10801397192104,
images/light_grey_box_with_cue,images/light_grey_box,images/light_grey_box,images/light_grey_box,images/light_grey_box_with_target,images/light_grey_box,0,0.1,0.25,0,94,94,40,,,,,,,,,,,,,335.1166900789831,None,335.1166900789831,None,335.1166900789831,None,336.12373652798124,None,336.12373652798124,None,336.12373652798124,None,0.1,0.25,336.30688773293514,336.4666853089584,336.30688773293514,336.4666853089584,336.30688773293514,336.4666853089584,space,0.5595418669981882,336.30688773293514,None,336.88252001197543,None,,,6,001,2020_Apr_18_1832,experiment,2020.1.3,60.10801397192104,
images/light_grey_box,images/light_grey_box,images/light_grey_box,images/light_grey_box,images/light_grey_box_with_target,images/light_grey_box,0,0.5,0.65,0,95,95,114,,,,,,,,,,,,,337.3829454689985,None,337.3829454689985,None,337.3829454689985,None,338.38989520200994,None,338.38989520200994,None,338.38989520200994,None,0.0,0.15,338.58687328500673,338.7500836129766,338.58687328500673,338.7500836129766,338.58687328500673,338.7500836129766,space,0.3348158090375364,338.58687328500673,None,338.93474227399565,None,,,6,001,2020_Apr_18_1832,experiment,2020.1.3,60.10801397192104,
images/light_grey_box,images/light_grey_box,images/light_grey_box_with_cue,images/light_grey_box,images/light_grey_box,images/light_grey_box,0,0.1,0.25,0,96,96,59,,,,,,,,,,,,,339.4502131489571,None,339.4502131489571,None,339.4502131489571,None,340.46429336990695,None,340.46429336990695,None,340.46429336990695,None,0.1,0.25,340.6828512669308,340.81614934594836,340.6828512669308,340.81614934594836,340.6828512669308,340.81614934594836,space,3.820977342897095,340.6828512669308,None,344.5162078469293,None,,,6,001,2020_Apr_18_1832,experiment,2020.1.3,60.10801397192104,
images/light_grey_box,images/light_grey_box,images/light_grey_box,images/light_grey_box,images/light_grey_box_with_target,images/light_grey_box,0,0.1,0.25,0,97,97,55,,,,,,,,,,,,,345.01667807693593,None,345.01667807693593,None,345.01667807693593,None,346.02514003391843,None,346.02514003391843,None,346.02514003391843,None,0.5,0.65,346.31671214697417,346.38310016994365,346.31671214697417,346.38310016994365,346.31671214697417,346.38310016994365,space,0.47025544196367264,346.31671214697417,None,346.79963638598565,None,,,6,001,2020_Apr_18_1832,experiment,2020.1.3,60.10801397192104,
images/light_grey_box,images/light_grey_box,images/light_grey_box,images/light_grey_box,images/light_grey_box_with_target,images/light_grey_box,0,0.3,0.45,0,98,98,94,,,,,,,,,,,,,347.2999112799298,None,347.2999112799298,None,347.2999112799298,None,348.31035490101203,None,348.31035490101203,None,348.31035490101203,None,0.3,0.44999999999999996,348.5003851039801,348.6332398749655,348.5003851039801,348.6332398749655,348.5003851039801,348.6332398749655,space,0.4193386269034818,348.5003851039801,None,348.9359699989436,None,,,6,001,2020_Apr_18_1832,experiment,2020.1.3,60.10801397192104,
images/light_grey_box,images/light_grey_box,images/light_grey_box_with_cue,images/light_grey_box,images/light_grey_box_with_target,images/light_grey_box,0,0.0,0.15,0,99,99,13,,,,,,,,,,,,,349.4511959539959,None,349.4511959539959,None,349.4511959539959,None,350.4661431859713,None,350.4661431859713,None,350.4661431859713,None,0.2,0.35,350.6526599510107,350.9005198099185,350.6526599510107,350.9005198099185,350.6526599510107,350.9005198099185,space,0.3362010599812493,350.6526599510107,None,351.0031689789612,None,,,6,001,2020_Apr_18_1832,experiment,2020.1.3,60.10801397192104,
images/light_grey_box_with_cue,images/light_grey_box,images/light_grey_box,images/light_grey_box,images/light_grey_box_with_target,images/light_grey_box,0,0.0,0.15,0,100,100,0,,,,,,,,,,,,,351.5172488800017,None,351.5172488800017,None,351.5172488800017,None,352.53107216896024,None,352.53107216896024,None,352.53107216896024,None,0.05,0.2,352.7337270419812,352.86724655597936,352.7337270419812,352.86724655597936,352.7337270419812,352.86724655597936,space,0.370309321093373,352.7337270419812,None,353.1178679629229,None,,,6,001,2020_Apr_18_1832,experiment,2020.1.3,60.10801397192104,
images/light_grey_box_with_cue,images/light_grey_box,images/light_grey_box,images/light_grey_box,images/light_grey_box_with_target,images/light_grey_box,0,0.3,0.45,0,101,101,85,,,,,,,,,,,,,353.617200431996,None,353.617200431996,None,353.617200431996,None,354.6312051679706,None,354.6312051679706,None,354.6312051679706,None,0.05,0.2,354.86705841193907,355.0484187809052,354.86705841193907,355.0484187809052,354.86705841193907,355.0484187809052,space,0.3691316850017756,354.86705841193907,None,355.2488477289444,None,,,6,001,2020_Apr_18_1832,experiment,2020.1.3,60.10801397192104,
images/light_grey_box,images/light_grey_box,images/light_grey_box_with_cue,images/light_grey_box,images/light_grey_box_with_target,images/light_grey_box,0,0.3,0.45,0,102,102,90,,,,,,,,,,,,,355.749771936913,None,355.749771936913,None,355.749771936913,None,356.76338851300534,None,356.76338851300534,None,356.76338851300534,None,0.1,0.25,356.9519228609279,357.0995672469726,356.9519228609279,357.0995672469726,356.9519228609279,357.0995672469726,space,0.41870710998773575,356.9519228609279,None,357.3830075309379,None,,,6,001,2020_Apr_18_1832,experiment,2020.1.3,60.10801397192104,
images/light_grey_box,images/light_grey_box,images/light_grey_box_with_cue,images/light_grey_box,images/light_grey_box_with_target,images/light_grey_box,0,0.2,0.35,0,103,103,72,,,,,,,,,,,,,357.88301156798843,None,357.88301156798843,None,357.88301156798843,None,358.89270174200647,None,358.89270174200647,None,358.89270174200647,None,0.3,0.44999999999999996,359.0988255069824,359.26541376893874,359.0988255069824,359.26541376893874,359.0988255069824,359.26541376893874,space,0.4073182380525395,359.0988255069824,None,359.5177898539696,None,,,6,001,2020_Apr_18_1832,experiment,2020.1.3,60.10801397192104,
images/light_grey_box_with_cue,images/light_grey_box,images/light_grey_box,images/light_grey_box,images/light_grey_box,images/light_grey_box_with_target,0,0.5,0.65,0,104,104,107,,,,,,,,,,,,,360.0329360659234,None,360.0329360659234,None,360.0329360659234,None,361.04882097197697,None,361.04882097197697,None,361.04882097197697,None,0.2,0.35,361.19644409196917,361.38279031193815,361.19644409196917,361.38279031193815,361.19644409196917,361.38279031193815,space,0.4567635509883985,361.19644409196917,None,361.6655284939334,None,,,6,001,2020_Apr_18_1832,experiment,2020.1.3,60.10801397192104,
images/light_grey_box_with_cue,images/light_grey_box,images/light_grey_box,images/light_grey_box,images/light_grey_box_with_target,images/light_grey_box,0,0.3,0.45,0,105,105,81,,,,,,,,,,,,,362.16572812292725,None,362.16572812292725,None,362.16572812292725,None,363.1791787300026,None,363.1791787300026,None,363.1791787300026,None,0.5,0.65,363.36936270899605,363.49962028698064,363.36936270899605,363.49962028698064,363.36936270899605,363.49962028698064,space,0.46873098600190133,363.36936270899605,None,363.85202078393195,None,,,6,001,2020_Apr_18_1832,experiment,2020.1.3,60.10801397192104,
images/light_grey_box,images/light_grey_box,images/light_grey_box,images/light_grey_box,images/light_grey_box_with_target,images/light_grey_box,0,0.05,0.2,0,106,106,33,,,,,,,,,,,,,364.3664335649228,None,364.3664335649228,None,364.3664335649228,None,365.3746699759504,None,365.3746699759504,None,365.3746699759504,None,0.1,0.25,365.5395430859644,365.66622244694736,365.5395430859644,365.66622244694736,365.5395430859644,365.66622244694736,space,0.3989158229669556,365.5395430859644,None,365.95044667390175,None,,,6,001,2020_Apr_18_1832,experiment,2020.1.3,60.10801397192104,
images/light_grey_box,images/light_grey_box,images/light_grey_box,images/light_grey_box,images/light_grey_box_with_target,images/light_grey_box,0,0.05,0.2,0,107,107,35,,,,,,,,,,,,,366.4664470589487,None,366.4664470589487,None,366.4664470589487,None,367.47234615299385,None,367.47234615299385,None,367.47234615299385,None,0.3,0.44999999999999996,367.69951513397973,367.7665328650037,367.69951513397973,367.7665328650037,367.69951513397973,367.7665328650037,space,0.43553413602057844,367.69951513397973,None,368.14896095194854,None,,,6,001,2020_Apr_18_1832,experiment,2020.1.3,60.10801397192104,
images/light_grey_box_with_cue,images/light_grey_box,images/light_grey_box,images/light_grey_box,images/light_grey_box,images/light_grey_box,0,0.0,0.15,0,108,108,9,,,,,,,,,,,,,368.6497292770073,None,368.6497292770073,None,368.6497292770073,None,369.6647024959093,None,369.6647024959093,None,369.6647024959093,None,0.0,0.15,369.8661143289646,369.9995880170027,369.8661143289646,369.9995880170027,369.8661143289646,369.9995880170027,space,4.8535076949046925,369.8661143289646,None,374.7319757359801,None,,,6,001,2020_Apr_18_1832,experiment,2020.1.3,60.10801397192104,
images/light_grey_box,images/light_grey_box,images/light_grey_box_with_cue,images/light_grey_box,images/light_grey_box_with_target,images/light_grey_box,0,0.3,0.45,0,109,109,91,,,,,,,,,,,,,375.2330168149201,None,375.2330168149201,None,375.2330168149201,None,376.24483773694374,None,376.24483773694374,None,376.24483773694374,None,0.5,0.65,376.4498407939682,376.54973896592855,376.4498407939682,376.54973896592855,376.4498407939682,376.54973896592855,space,0.37175185699015856,376.4498407939682,None,376.83612831600476,None,,,6,001,2020_Apr_18_1832,experiment,2020.1.3,60.10801397192104,
images/light_grey_box,images/light_grey_box,images/light_grey_box_with_cue,images/light_grey_box,images/light_grey_box_with_target,images/light_grey_box,0,0.0,0.15,0,110,110,11,,,,,,,,,,,,,377.3515618739184,None,377.3515618739184,None,377.3515618739184,None,378.36587218299974,None,378.36587218299974,None,378.36587218299974,None,0.3,0.44999999999999996,378.55196987697855,378.7835286759073,378.55196987697855,378.7835286759073,378.55196987697855,378.7835286759073,space,0.3527551480801776,378.55196987697855,None,378.9186100909719,None,,,6,001,2020_Apr_18_1832,experiment,2020.1.3,60.10801397192104,
images/light_grey_box,images/light_grey_box,images/light_grey_box_with_cue,images/light_grey_box,images/light_grey_box_with_target,images/light_grey_box,0,0.0,0.15,0,111,111,12,,,,,,,,,,,,,379.43354703800287,None,379.43354703800287,None,379.43354703800287,None,380.44803808501456,None,380.44803808501456,None,380.44803808501456,None,0.3,0.44999999999999996,380.6083569729235,380.8002292319434,380.6083569729235,380.8002292319434,380.6083569729235,380.8002292319434,space,0.3121492339996621,380.6083569729235,None,380.9342815509299,None,,,6,001,2020_Apr_18_1832,experiment,2020.1.3,60.10801397192104,
images/light_grey_box_with_cue,images/light_grey_box,images/light_grey_box,images/light_grey_box,images/light_grey_box_with_target,images/light_grey_box,0,0.5,0.65,0,112,112,102,,,,,,,,,,,,,381.43378243094776,None,381.43378243094776,None,381.43378243094776,None,382.44814426393714,None,382.44814426393714,None,382.44814426393714,None,0.5,0.65,382.71710349898785,382.7835345210042,382.71710349898785,382.7835345210042,382.71710349898785,382.7835345210042,space,0.33476322900969535,382.71710349898785,None,383.0643759010127,None,,,6,001,2020_Apr_18_1832,experiment,2020.1.3,60.10801397192104,
images/light_grey_box_with_cue,images/light_grey_box,images/light_grey_box,images/light_grey_box,images/light_grey_box_with_target,images/light_grey_box,0,0.0,0.15,0,113,113,1,,,,,,,,,,,,,383.5679365779506,None,383.5679365779506,None,383.5679365779506,None,384.5975818419829,None,384.5975818419829,None,384.5975818419829,None,0.1,0.25,384.78226408490445,384.882665923913,384.78226408490445,384.882665923913,384.78226408490445,384.882665923913,space,0.28852785599883646,384.78226408490445,None,385.0835778019391,None,,,6,001,2020_Apr_18_1832,experiment,2020.1.3,60.10801397192104,
images/light_grey_box_with_cue,images/light_grey_box,images/light_grey_box,images/light_grey_box,images/light_grey_box_with_target,images/light_grey_box,0,0.1,0.25,0,114,114,44,,,,,,,,,,,,,385.59950112190563,None,385.59950112190563,None,385.59950112190563,None,386.6121556549333,None,386.6121556549333,None,386.6121556549333,None,0.3,0.44999999999999996,386.8155556889251,387.0321871859487,386.8155556889251,387.0321871859487,386.8155556889251,387.0321871859487,space,0.2537362859584391,386.8155556889251,None,387.0828344459878,None,,,6,001,2020_Apr_18_1832,experiment,2020.1.3,60.10801397192104,
images/light_grey_box_with_cue,images/light_grey_box,images/light_grey_box,images/light_grey_box,images/light_grey_box_with_target,images/light_grey_box,0,0.2,0.35,0,115,115,64,,,,,,,,,,,,,387.5841724809725,None,387.5841724809725,None,387.5841724809725,None,388.6153017899487,None,388.6153017899487,None,388.6153017899487,None,0.0,0.15,388.86594136594795,388.8993333890103,388.86594136594795,388.8993333890103,388.86594136594795,388.8993333890103,space,0.337355058058165,388.86594136594795,None,389.2162319479976,None,,,6,001,2020_Apr_18_1832,experiment,2020.1.3,60.10801397192104,
images/light_grey_box,images/light_grey_box,images/light_grey_box_with_cue,images/light_grey_box,images/light_grey_box,images/light_grey_box_with_target,0,0.2,0.35,0,116,116,77,,,,,,,,,,,,,389.71593302092515,None,389.71593302092515,None,389.71593302092515,None,390.7296476989286,None,390.7296476989286,None,390.7296476989286,None,0.0,0.15,390.93203189992346,391.0659113189904,390.93203189992346,391.0659113189904,390.93203189992346,391.0659113189904,space,0.2722288150107488,390.93203189992346,None,391.21700079296716,None,,,6,001,2020_Apr_18_1832,experiment,2020.1.3,60.10801397192104,
images/light_grey_box,images/light_grey_box,images/light_grey_box,images/light_grey_box,images/light_grey_box_with_target,images/light_grey_box,0,0.1,0.25,0,117,117,54,,,,,,,,,,,,,391.7325639720075,None,391.7325639720075,None,391.7325639720075,None,392.73881203099154,None,392.73881203099154,None,392.73881203099154,None,0.3,0.44999999999999996,392.94912090094294,393.1161886129994,392.94912090094294,393.1161886129994,392.94912090094294,393.1161886129994,space,0.37005216302350163,392.94912090094294,None,393.33146632590797,None,,,6,001,2020_Apr_18_1832,experiment,2020.1.3,60.10801397192104,
images/light_grey_box,images/light_grey_box,images/light_grey_box_with_cue,images/light_grey_box,images/light_grey_box,images/light_grey_box,0,0.5,0.65,0,118,118,118,,,,,,,,,,,,,393.8326445110142,None,393.8326445110142,None,393.8326445110142,None,394.8458222859772,None,394.8458222859772,None,394.8458222859772,None,0.1,0.25,395.08275252894964,395.1662094509229,395.08275252894964,395.1662094509229,395.08275252894964,395.1662094509229,space,8.739247480058111,395.08275252894964,None,403.83675234299153,None,,,6,001,2020_Apr_18_1832,experiment,2020.1.3,60.10801397192104,
images/light_grey_box_with_cue,images/light_grey_box,images/light_grey_box,images/light_grey_box,images/light_grey_box,images/light_grey_box_with_target,0,0.2,0.35,0,119,119,67,,,,,,,,,,,,,404.3510698869359,None,404.3510698869359,None,404.3510698869359,None,405.36451511399355,None,405.36451511399355,None,405.36451511399355,None,0.05,0.2,405.50747959292494,405.64976654492784,405.50747959292494,405.64976654492784,405.50747959292494,405.64976654492784,space,0.379676835029386,405.50747959292494,None,405.90103861899115,None,,,6,001,2020_Apr_18_1832,experiment,2020.1.3,60.10801397192104,
,,,,,,,,,,,,,,,,,,,,,,,,,,,,,,,,,,,,,,,,,,,,,,,,,,,406.41691361600533,None,,,,,,,
