image_cue_1,image_cue_2,image_cue_3,image_target_1,image_target_2,image_target_3,targetStart,startTime,endTime,trials.thisRepN,trials.thisTrialN,trials.thisN,trials.thisIndex,textWelcome.started,textWelcome.stopped,keyWelcome.keys,keyWelcome.rt,keyWelcome.started,keyWelcome.stopped,textStart.started,textStart.stopped,keyStart.keys,keyStart.rt,keyStart.started,keyStart.stopped,imageTrailBefore_1.started,imageTrailBefore_1.stopped,imageTrialBefore_2.started,imageTrialBefore_2.stopped,imageTrialBefore_3.started,imageTrialBefore_3.stopped,imageTrialCue_1.started,imageTrialCue_1.stopped,imageTrialCue_2.started,imageTrialCue_2.stopped,imageTrialCue_3.started,imageTrialCue_3.stopped,TrialSceenTargetStart,TrialSceenTargetEnd,imageTrialTarget_1.started,imageTrialTarget_1.stopped,imageTrialTarget_2.started,imageTrialTarget_2.stopped,imageTrialTarget_3.started,imageTrialTarget_3.stopped,keyResponse.keys,keyResponse.rt,keyResponse.started,keyResponse.stopped,textBlank500.started,textBlank500.stopped,textEndSceen.started,textEndSceen.stopped,participant,session,date,expName,psychopyVersion,frameRate,
,,,,,,,,,,,,,5.382660027011298,None,space,84.68269533896819,5.382660027011298,None,,,,,,,,,,,,,,,,,,,,,,,,,,,,,,,,,,,7,001,2020_Apr_18_1839,experiment,2020.1.3,59.59007650651281,
,,,,,,,,,,,,,,,,,,,90.07781866402365,None,space,1.7077754749916494,90.07781866402365,None,,,,,,,,,,,,,,,,,,,,,,,,,,,,,7,001,2020_Apr_18_1839,experiment,2020.1.3,59.59007650651281,
images/light_grey_box,images/light_grey_box,images/light_grey_box,images/light_grey_box,images/light_grey_box_with_target,images/light_grey_box,0,0.5,0.65,0,0,0,116,,,,,,,,,,,,,91.83465258800425,None,91.83465258800425,None,91.83465258800425,None,92.82899619301315,None,92.82899619301315,None,92.82899619301315,None,0.2,0.35,93.00261802307796,93.16220550099388,93.00261802307796,93.16220550099388,93.00261802307796,93.16220550099388,space,17.46412285999395,93.00261802307796,None,110.48116885800846,None,,,7,001,2020_Apr_18_1839,experiment,2020.1.3,59.59007650651281,
images/light_grey_box,images/light_grey_box,images/light_grey_box,images/light_grey_box,images/light_grey_box_with_target,images/light_grey_box,0,0.3,0.45,0,1,1,95,,,,,,,,,,,,,110.99396110605448,None,110.99396110605448,None,110.99396110605448,None,112.00200546509586,None,112.00200546509586,None,112.00200546509586,None,0.3,0.44999999999999996,112.18135930306744,112.29421009402722,112.18135930306744,112.29421009402722,112.18135930306744,112.29421009402722,space,0.33308309991844,112.18135930306744,None,112.52791447809432,None,,,7,001,2020_Apr_18_1839,experiment,2020.1.3,59.59007650651281,
images/light_grey_box_with_cue,images/light_grey_box,images/light_grey_box,images/light_grey_box,images/light_grey_box_with_target,images/light_grey_box,0,0.3,0.45,0,2,2,83,,,,,,,,,,,,,113.02739891700912,None,113.02739891700912,None,113.02739891700912,None,114.04390400799457,None,114.04390400799457,None,114.04390400799457,None,0.2,0.35,114.2079892300535,None,114.2079892300535,None,114.2079892300535,None,space,0.12407261703629047,114.2079892300535,None,114.34779596200678,None,,,7,001,2020_Apr_18_1839,experiment,2020.1.3,59.59007650651281,
images/light_grey_box,images/light_grey_box,images/light_grey_box_with_cue,images/light_grey_box,images/light_grey_box_with_target,images/light_grey_box,0,0.05,0.2,0,3,3,32,,,,,,,,,,,,,114.86062646110076,None,114.86062646110076,None,114.86062646110076,None,115.87458117806818,None,115.87458117806818,None,115.87458117806818,None,0.1,0.25,116.03450061008334,116.16065979900304,116.03450061008334,116.16065979900304,116.03450061008334,116.16065979900304,space,0.379595938953571,116.03450061008334,None,116.42684339708649,None,,,7,001,2020_Apr_18_1839,experiment,2020.1.3,59.59007650651281,
images/light_grey_box_with_cue,images/light_grey_box,images/light_grey_box,images/light_grey_box,images/light_grey_box,images/light_grey_box,0,0.3,0.45,0,4,4,89,,,,,,,,,,,,,116.9273749270942,None,116.9273749270942,None,116.9273749270942,None,117.94277226901613,None,117.94277226901613,None,117.94277226901613,None,0.0,0.15,118.17728950700257,118.27705652907025,118.17728950700257,118.27705652907025,118.17728950700257,118.27705652907025,space,0.2032740160357207,118.17728950700257,None,118.39321381004993,None,,,7,001,2020_Apr_18_1839,experiment,2020.1.3,59.59007650651281,
images/light_grey_box,images/light_grey_box,images/light_grey_box_with_cue,images/light_grey_box,images/light_grey_box_with_target,images/light_grey_box,0,0.3,0.45,0,5,5,92,,,,,,,,,,,,,118.89377288101241,None,118.89377288101241,None,118.89377288101241,None,119.90861067501828,None,119.90861067501828,None,119.90861067501828,None,0.0,0.15,120.09480525099207,120.27732052002102,120.09480525099207,120.27732052002102,120.09480525099207,120.27732052002102,space,0.30204040405806154,120.09480525099207,None,120.41272780799773,None,,,7,001,2020_Apr_18_1839,experiment,2020.1.3,59.59007650651281,
images/light_grey_box_with_cue,images/light_grey_box,images/light_grey_box,images/light_grey_box,images/light_grey_box_with_target,images/light_grey_box,0,0.5,0.65,0,6,6,103,,,,,,,,,,,,,120.91279701609164,None,120.91279701609164,None,120.91279701609164,None,121.94234626204707,None,121.94234626204707,None,121.94234626204707,None,0.5,0.65,122.14494565501809,122.32808641099837,122.14494565501809,122.32808641099837,122.14494565501809,122.32808641099837,space,0.3044493430061266,122.14494565501809,None,122.46224524802528,None,,,7,001,2020_Apr_18_1839,experiment,2020.1.3,59.59007650651281,
images/light_grey_box,images/light_grey_box,images/light_grey_box,images/light_grey_box,images/light_grey_box_with_target,images/light_grey_box,0,0.05,0.2,0,7,7,34,,,,,,,,,,,,,122.96102220204193,None,122.96102220204193,None,122.96102220204193,None,123.97058180707972,None,123.97058180707972,None,123.97058180707972,None,0.05,0.2,124.14092665410135,124.34403581707738,124.14092665410135,124.34403581707738,124.14092665410135,124.34403581707738,space,0.2730618519708514,124.14092665410135,None,124.42672104306985,None,,,7,001,2020_Apr_18_1839,experiment,2020.1.3,59.59007650651281,
images/light_grey_box_with_cue,images/light_grey_box,images/light_grey_box,images/light_grey_box,images/light_grey_box_with_target,images/light_grey_box,0,0.2,0.35,0,8,8,63,,,,,,,,,,,,,124.92712215904612,None,124.92712215904612,None,124.92712215904612,None,125.94137707003392,None,125.94137707003392,None,125.94137707003392,None,0.3,0.44999999999999996,126.14414793800097,126.31061206804588,126.14414793800097,126.31061206804588,126.14414793800097,126.31061206804588,space,0.28367857390549034,126.14414793800097,None,126.44181274902076,None,,,7,001,2020_Apr_18_1839,experiment,2020.1.3,59.59007650651281,
images/light_grey_box,images/light_grey_box,images/light_grey_box,images/light_grey_box,images/light_grey_box_with_target,images/light_grey_box,0,0.3,0.45,0,9,9,96,,,,,,,,,,,,,126.94371444103308,None,126.94371444103308,None,126.94371444103308,None,127.95270294707734,None,127.95270294707734,None,127.95270294707734,None,0.3,0.44999999999999996,128.17632990609854,128.32628701301292,128.17632990609854,128.32628701301292,128.17632990609854,128.32628701301292,space,0.2531090920092538,128.17632990609854,None,128.44215413101483,None,,,7,001,2020_Apr_18_1839,experiment,2020.1.3,59.59007650651281,
images/light_grey_box,images/light_grey_box,images/light_grey_box,images/light_grey_box,images/light_grey_box_with_target,images/light_grey_box,0,0.05,0.2,0,10,10,35,,,,,,,,,,,,,128.943702171091,None,128.943702171091,None,128.943702171091,None,129.95253885199782,None,129.95253885199782,None,129.95253885199782,None,0.0,0.15,130.1480648360448,130.26039028109517,130.1480648360448,130.26039028109517,130.1480648360448,130.26039028109517,space,0.266938152955845,130.1480648360448,None,130.42801894107834,None,,,7,001,2020_Apr_18_1839,experiment,2020.1.3,59.59007650651281,
images/light_grey_box_with_cue,images/light_grey_box,images/light_grey_box,images/light_grey_box,images/light_grey_box_with_target,images/light_grey_box,0,0.5,0.65,0,11,11,101,,,,,,,,,,,,,130.92720275209285,None,130.92720275209285,None,130.92720275209285,None,131.9425542500103,None,131.9425542500103,None,131.9425542500103,None,0.05,0.2,132.11689539800864,132.2937272490235,132.11689539800864,132.2937272490235,132.11689539800864,132.2937272490235,space,0.31076878297608346,132.11689539800864,None,132.44282555801328,None,,,7,001,2020_Apr_18_1839,experiment,2020.1.3,59.59007650651281,
images/light_grey_box_with_cue,images/light_grey_box,images/light_grey_box,images/light_grey_box,images/light_grey_box,images/light_grey_box,0,0.05,0.2,0,12,12,28,,,,,,,,,,,,,132.94321796507575,None,132.94321796507575,None,132.94321796507575,None,133.95706493605394,None,133.95706493605394,None,133.95706493605394,None,0.2,0.35,134.1764626330696,134.31044378399383,134.1764626330696,134.31044378399383,134.1764626330696,134.31044378399383,space,0.22121827397495508,134.1764626330696,None,134.41108314099256,None,,,7,001,2020_Apr_18_1839,experiment,2020.1.3,59.59007650651281,
images/light_grey_box,images/light_grey_box,images/light_grey_box,images/light_grey_box,images/light_grey_box_with_target,images/light_grey_box,0,0.2,0.35,0,13,13,73,,,,,,,,,,,,,134.91035056801047,None,134.91035056801047,None,134.91035056801047,None,135.91875835799146,None,135.91875835799146,None,135.91875835799146,None,0.2,0.35,136.09074337698985,None,136.09074337698985,None,136.09074337698985,None,space,0.23930091899819672,136.09074337698985,None,136.34293749101926,None,,,7,001,2020_Apr_18_1839,experiment,2020.1.3,59.59007650651281,
images/light_grey_box_with_cue,images/light_grey_box,images/light_grey_box,images/light_grey_box,images/light_grey_box,images/light_grey_box,0,0.3,0.45,0,14,14,88,,,,,,,,,,,,,136.8438693950884,None,136.8438693950884,None,136.8438693950884,None,137.85923202103004,None,137.85923202103004,None,137.85923202103004,None,0.1,0.25,138.11060301901307,138.160329495091,138.11060301901307,138.160329495091,138.11060301901307,138.160329495091,space,3.1712187649682164,138.11060301901307,None,141.29394270805642,None,,,7,001,2020_Apr_18_1839,experiment,2020.1.3,59.59007650651281,
images/light_grey_box,images/light_grey_box,images/light_grey_box_with_cue,images/light_grey_box,images/light_grey_box,images/light_grey_box,0,0.5,0.65,0,15,15,118,,,,,,,,,,,,,141.7935364660807,None,141.7935364660807,None,141.7935364660807,None,142.80596113600768,None,142.80596113600768,None,142.80596113600768,None,0.3,0.44999999999999996,143.01001380209345,143.2271804040065,143.01001380209345,143.2271804040065,143.01001380209345,143.2271804040065,space,1.5210198550485075,143.01001380209345,None,144.54448440705892,None,,,7,001,2020_Apr_18_1839,experiment,2020.1.3,59.59007650651281,
images/light_grey_box_with_cue,images/light_grey_box,images/light_grey_box,images/light_grey_box,images/light_grey_box,images/light_grey_box_with_target,0,0.2,0.35,0,16,16,67,,,,,,,,,,,,,145.04365857702214,None,145.04365857702214,None,145.04365857702214,None,146.05984842800535,None,146.05984842800535,None,146.05984842800535,None,0.2,0.35,146.2759910810273,146.37674278905615,146.2759910810273,146.37674278905615,146.2759910810273,146.37674278905615,space,0.4075696049258113,146.2759910810273,None,146.7107123110909,None,,,7,001,2020_Apr_18_1839,experiment,2020.1.3,59.59007650651281,
images/light_grey_box,images/light_grey_box,images/light_grey_box_with_cue,images/light_grey_box,images/light_grey_box_with_target,images/light_grey_box,0,0.3,0.45,0,17,17,91,,,,,,,,,,,,,147.2123006330803,None,147.2123006330803,None,147.2123006330803,None,148.2265955520561,None,148.2265955520561,None,148.2265955520561,None,0.2,0.35,148.3849958020728,148.6275625100825,148.3849958020728,148.6275625100825,148.3849958020728,148.6275625100825,space,0.4133058979641646,148.3849958020728,None,148.81268224900123,None,,,7,001,2020_Apr_18_1839,experiment,2020.1.3,59.59007650651281,
images/light_grey_box_with_cue,images/light_grey_box,images/light_grey_box,images/light_grey_box,images/light_grey_box_with_target,images/light_grey_box,0,0.05,0.2,0,18,18,24,,,,,,,,,,,,,149.32791370199993,None,149.32791370199993,None,149.32791370199993,None,150.34218113601673,None,150.34218113601673,None,150.34218113601673,None,0.1,0.25,150.49094462499488,150.64407097909134,150.49094462499488,150.64407097909134,150.49094462499488,150.64407097909134,space,0.4053663669619709,150.49094462499488,None,150.90972834802233,None,,,7,001,2020_Apr_18_1839,experiment,2020.1.3,59.59007650651281,
images/light_grey_box,images/light_grey_box,images/light_grey_box,images/light_grey_box,images/light_grey_box_with_target,images/light_grey_box,0,0.2,0.35,0,19,19,74,,,,,,,,,,,,,151.41077093710192,None,151.41077093710192,None,151.41077093710192,None,152.41969617200084,None,152.41969617200084,None,152.41969617200084,None,0.0,0.15,152.69382552499883,152.81046072300524,152.69382552499883,152.81046072300524,152.69382552499883,152.81046072300524,space,0.15344361891038716,152.69382552499883,None,152.8606990800472,None,,,7,001,2020_Apr_18_1839,experiment,2020.1.3,59.59007650651281,
images/light_grey_box_with_cue,images/light_grey_box,images/light_grey_box,images/light_grey_box,images/light_grey_box,images/light_grey_box,0,0.1,0.25,0,20,20,49,,,,,,,,,,,,,153.36074174905661,None,153.36074174905661,None,153.36074174905661,None,154.37504342698958,None,154.37504342698958,None,154.37504342698958,None,0.1,0.25,154.53470014606137,154.72706418705638,154.53470014606137,154.72706418705638,154.53470014606137,154.72706418705638,space,2.2139187889406458,154.53470014606137,None,156.7625277590705,None,,,7,001,2020_Apr_18_1839,experiment,2020.1.3,59.59007650651281,
images/light_grey_box,images/light_grey_box,images/light_grey_box_with_cue,images/light_grey_box,images/light_grey_box_with_target,images/light_grey_box,0,0.0,0.15,0,21,21,12,,,,,,,,,,,,,157.27624558005482,None,157.27624558005482,None,157.27624558005482,None,158.2908437140286,None,158.2908437140286,None,158.2908437140286,None,0.2,0.35,158.46425916301087,158.64364627108444,158.46425916301087,158.64364627108444,158.46425916301087,158.64364627108444,space,0.26849447295535356,158.46425916301087,None,158.74353272898588,None,,,7,001,2020_Apr_18_1839,experiment,2020.1.3,59.59007650651281,
images/light_grey_box,images/light_grey_box,images/light_grey_box_with_cue,images/light_grey_box,images/light_grey_box,images/light_grey_box,0,0.3,0.45,0,22,22,99,,,,,,,,,,,,,159.24353335204069,None,159.24353335204069,None,159.24353335204069,None,160.25728787400294,None,160.25728787400294,None,160.25728787400294,None,0.05,0.2,160.43201580201276,160.55991888802964,160.43201580201276,160.55991888802964,160.43201580201276,160.55991888802964,space,1.882195331971161,160.43201580201276,None,162.32742983405478,None,,,7,001,2020_Apr_18_1839,experiment,2020.1.3,59.59007650651281,
images/light_grey_box_with_cue,images/light_grey_box,images/light_grey_box,images/light_grey_box_with_target,images/light_grey_box,images/light_grey_box,0,0.1,0.25,0,23,23,46,,,,,,,,,,,,,162.82657714409288,None,162.82657714409288,None,162.82657714409288,None,163.84194556903094,None,163.84194556903094,None,163.84194556903094,None,0.1,0.25,164.0593986280728,164.1932213100372,164.0593986280728,164.1932213100372,164.0593986280728,164.1932213100372,space,0.4896899899467826,164.0593986280728,None,164.5622325350996,None,,,7,001,2020_Apr_18_1839,experiment,2020.1.3,59.59007650651281,
images/light_grey_box_with_cue,images/light_grey_box,images/light_grey_box,images/light_grey_box,images/light_grey_box_with_target,images/light_grey_box,0,0.0,0.15,0,24,24,1,,,,,,,,,,,,,165.07652441202663,None,165.07652441202663,None,165.07652441202663,None,166.09200962702744,None,166.09200962702744,None,166.09200962702744,None,0.1,0.25,166.24073576007504,166.3766300670104,166.24073576007504,166.3766300670104,166.24073576007504,166.3766300670104,space,0.3564886139938608,166.24073576007504,None,166.61158906202763,None,,,7,001,2020_Apr_18_1839,experiment,2020.1.3,59.59007650651281,
images/light_grey_box_with_cue,images/light_grey_box,images/light_grey_box,images/light_grey_box,images/light_grey_box_with_target,images/light_grey_box,0,0.2,0.35,0,25,25,64,,,,,,,,,,,,,167.12716569099575,None,167.12716569099575,None,167.12716569099575,None,168.14123837905936,None,168.14123837905936,None,168.14123837905936,None,0.2,0.35,168.39301073609386,168.4767031900119,168.39301073609386,168.4767031900119,168.39301073609386,168.4767031900119,space,0.30207298696041107,168.39301073609386,None,168.7094185310416,None,,,7,001,2020_Apr_18_1839,experiment,2020.1.3,59.59007650651281,
images/light_grey_box_with_cue,images/light_grey_box,images/light_grey_box,images/light_grey_box,images/light_grey_box_with_target,images/light_grey_box,0,0.3,0.45,0,26,26,85,,,,,,,,,,,,,169.21031259105075,None,169.21031259105075,None,169.21031259105075,None,170.2256962520769,None,170.2256962520769,None,170.2256962520769,None,0.05,0.2,170.42883714707568,170.5434985650936,170.42883714707568,170.5434985650936,170.42883714707568,170.5434985650936,space,1.518206504988484,170.42883714707568,None,171.9619000920793,None,,,7,001,2020_Apr_18_1839,experiment,2020.1.3,59.59007650651281,
images/light_grey_box,images/light_grey_box,images/light_grey_box_with_cue,images/light_grey_box,images/light_grey_box,images/light_grey_box_with_target,0,0.05,0.2,0,27,27,37,,,,,,,,,,,,,172.47672154800966,None,172.47672154800966,None,172.47672154800966,None,173.49117252905853,None,173.49117252905853,None,173.49117252905853,None,0.1,0.25,173.67631140409503,173.8431089100195,173.67631140409503,173.8431089100195,173.67631140409503,173.8431089100195,space,0.44022118696011603,173.67631140409503,None,174.13057270809077,None,,,7,001,2020_Apr_18_1839,experiment,2020.1.3,59.59007650651281,
images/light_grey_box,images/light_grey_box,images/light_grey_box_with_cue,images/light_grey_box,images/light_grey_box_with_target,images/light_grey_box,0,0.5,0.65,0,28,28,110,,,,,,,,,,,,,174.64447619009297,None,174.64447619009297,None,174.64447619009297,None,175.66021668701433,None,175.66021668701433,None,175.66021668701433,None,0.05,0.2,175.84673930204008,175.99411248601973,175.84673930204008,175.99411248601973,175.84673930204008,175.99411248601973,space,0.21875549806281924,175.84673930204008,None,176.07787010108586,None,,,7,001,2020_Apr_18_1839,experiment,2020.1.3,59.59007650651281,
images/light_grey_box,images/light_grey_box,images/light_grey_box,images/light_grey_box,images/light_grey_box_with_target,images/light_grey_box,0,0.1,0.25,0,29,29,54,,,,,,,,,,,,,176.57747088407632,None,176.57747088407632,None,176.57747088407632,None,177.58810358704068,None,177.58810358704068,None,177.58810358704068,None,0.5,0.65,177.75836688803975,177.92721350910142,177.75836688803975,177.92721350910142,177.75836688803975,177.92721350910142,space,0.30514492909424007,177.75836688803975,None,178.07688753609546,None,,,7,001,2020_Apr_18_1839,experiment,2020.1.3,59.59007650651281,
images/light_grey_box_with_cue,images/light_grey_box,images/light_grey_box,images/light_grey_box_with_target,images/light_grey_box,images/light_grey_box,0,0.5,0.65,0,30,30,106,,,,,,,,,,,,,178.57729899010155,None,178.57729899010155,None,178.57729899010155,None,179.5912862640107,None,179.5912862640107,None,179.5912862640107,None,0.3,0.44999999999999996,179.7672432330437,179.87672952003777,179.7672432330437,179.87672952003777,179.7672432330437,179.87672952003777,space,0.3104011620162055,179.7672432330437,None,180.09360517608002,None,,,7,001,2020_Apr_18_1839,experiment,2020.1.3,59.59007650651281,
images/light_grey_box_with_cue,images/light_grey_box,images/light_grey_box,images/light_grey_box,images/light_grey_box_with_target,images/light_grey_box,0,0.1,0.25,0,31,31,41,,,,,,,,,,,,,180.5936738270102,None,180.5936738270102,None,180.5936738270102,None,181.60788342310116,None,181.60788342310116,None,181.60788342310116,None,0.1,0.25,181.87677997606806,181.96051659807563,181.87677997606806,181.96051659807563,181.87677997606806,181.96051659807563,space,0.2041747870389372,181.87677997606806,None,182.0946982970927,None,,,7,001,2020_Apr_18_1839,experiment,2020.1.3,59.59007650651281,
images/light_grey_box,images/light_grey_box,images/light_grey_box_with_cue,images/light_grey_box,images/light_grey_box,images/light_grey_box_with_target,0,0.5,0.65,0,32,32,117,,,,,,,,,,,,,182.5937273510499,None,182.5937273510499,None,182.5937273510499,None,183.60780230606906,None,183.60780230606906,None,183.60780230606906,None,0.3,0.44999999999999996,183.77559042104986,183.90985349507537,183.77559042104986,183.90985349507537,183.77559042104986,183.90985349507537,space,0.3054944520117715,183.77559042104986,None,184.09343217103742,None,,,7,001,2020_Apr_18_1839,experiment,2020.1.3,59.59007650651281,
images/light_grey_box,images/light_grey_box,images/light_grey_box,images/light_grey_box,images/light_grey_box_with_target,images/light_grey_box,0,0.2,0.35,0,33,33,75,,,,,,,,,,,,,184.60971740703098,None,184.60971740703098,None,184.60971740703098,None,185.61698094801977,None,185.61698094801977,None,185.61698094801977,None,0.05,0.2,185.84270901908167,185.92599846806843,185.84270901908167,185.92599846806843,185.84270901908167,185.92599846806843,space,0.2870603969786316,185.84270901908167,None,186.14256373909302,None,,,7,001,2020_Apr_18_1839,experiment,2020.1.3,59.59007650651281,
images/light_grey_box_with_cue,images/light_grey_box,images/light_grey_box,images/light_grey_box,images/light_grey_box_with_target,images/light_grey_box,0,0.2,0.35,0,34,34,65,,,,,,,,,,,,,186.64315520809032,None,186.64315520809032,None,186.64315520809032,None,187.6583688290557,None,187.6583688290557,None,187.6583688290557,None,0.5,0.65,187.83407913707197,187.99320641800296,187.83407913707197,187.99320641800296,187.83407913707197,187.99320641800296,space,0.2793591960798949,187.83407913707197,None,188.1254012431018,None,,,7,001,2020_Apr_18_1839,experiment,2020.1.3,59.59007650651281,
images/light_grey_box,images/light_grey_box,images/light_grey_box_with_cue,images/light_grey_box,images/light_grey_box_with_target,images/light_grey_box,0,0.2,0.35,0,35,35,71,,,,,,,,,,,,,188.6263185699936,None,188.6263185699936,None,188.6263185699936,None,189.63885775499512,None,189.63885775499512,None,189.63885775499512,None,0.2,0.35,189.85935481602792,189.99298307299614,189.85935481602792,189.99298307299614,189.85935481602792,189.99298307299614,space,0.20622955006547272,189.85935481602792,None,190.0768595749978,None,,,7,001,2020_Apr_18_1839,experiment,2020.1.3,59.59007650651281,
images/light_grey_box,images/light_grey_box,images/light_grey_box_with_cue,images/light_grey_box,images/light_grey_box,images/light_grey_box,0,0.2,0.35,0,36,36,79,,,,,,,,,,,,,190.5762763810344,None,190.5762763810344,None,190.5762763810344,None,191.59229102300014,None,191.59229102300014,None,191.59229102300014,None,0.0,0.15,191.80903001199476,191.9262773420196,191.80903001199476,191.9262773420196,191.80903001199476,191.9262773420196,space,0.22000356309581548,191.80903001199476,None,192.04199842410162,None,,,7,001,2020_Apr_18_1839,experiment,2020.1.3,59.59007650651281,
images/light_grey_box_with_cue,images/light_grey_box,images/light_grey_box,images/light_grey_box_with_target,images/light_grey_box,images/light_grey_box,0,0.05,0.2,0,37,37,26,,,,,,,,,,,,,192.5420734420186,None,192.5420734420186,None,192.5420734420186,None,193.556193037075,None,193.556193037075,None,193.556193037075,None,0.5,0.65,193.79230661399197,193.94224378000945,193.79230661399197,193.94224378000945,193.79230661399197,193.94224378000945,space,0.387385233072564,193.79230661399197,None,194.19207537709735,None,,,7,001,2020_Apr_18_1839,experiment,2020.1.3,59.59007650651281,
images/light_grey_box_with_cue,images/light_grey_box,images/light_grey_box,images/light_grey_box,images/light_grey_box,images/light_grey_box,0,0.2,0.35,0,38,38,68,,,,,,,,,,,,,194.69284192903433,None,194.69284192903433,None,194.69284192903433,None,195.70699793705717,None,195.70699793705717,None,195.70699793705717,None,0.5,0.65,195.8815146080451,196.00953601999208,195.8815146080451,196.00953601999208,195.8815146080451,196.00953601999208,space,1.5648281840840355,195.8815146080451,None,197.45807179110125,None,,,7,001,2020_Apr_18_1839,experiment,2020.1.3,59.59007650651281,
images/light_grey_box,images/light_grey_box,images/light_grey_box,images/light_grey_box,images/light_grey_box_with_target,images/light_grey_box,0,0.5,0.65,0,39,39,114,,,,,,,,,,,,,197.95893191802315,None,197.95893191802315,None,197.95893191802315,None,198.966083670035,None,198.966083670035,None,198.966083670035,None,0.5,0.65,199.17609222407918,199.29288181907032,199.17609222407918,199.29288181907032,199.17609222407918,199.29288181907032,space,0.3379734540358186,199.17609222407918,None,199.52690821699798,None,,,7,001,2020_Apr_18_1839,experiment,2020.1.3,59.59007650651281,
images/light_grey_box_with_cue,images/light_grey_box,images/light_grey_box,images/light_grey_box_with_target,images/light_grey_box,images/light_grey_box,0,0.3,0.45,0,40,40,86,,,,,,,,,,,,,200.04225970001426,None,200.04225970001426,None,200.04225970001426,None,201.05834963102825,None,201.05834963102825,None,201.05834963102825,None,0.3,0.44999999999999996,201.20804832607973,201.39276330010034,201.20804832607973,201.39276330010034,201.20804832607973,201.39276330010034,space,0.4250642569968477,201.20804832607973,None,201.64894170803018,None,,,7,001,2020_Apr_18_1839,experiment,2020.1.3,59.59007650651281,
images/light_grey_box,images/light_grey_box,images/light_grey_box,images/light_grey_box,images/light_grey_box_with_target,images/light_grey_box,0,0.1,0.25,0,41,41,53,,,,,,,,,,,,,202.16151660808828,None,202.16151660808828,None,202.16151660808828,None,203.17152533808257,None,203.17152533808257,None,203.17152533808257,None,0.3,0.44999999999999996,203.42703534604516,203.46039085101802,203.42703534604516,203.46039085101802,203.42703534604516,203.46039085101802,space,0.3515808990923688,203.42703534604516,None,203.7923746430315,None,,,7,001,2020_Apr_18_1839,experiment,2020.1.3,59.59007650651281,
images/light_grey_box_with_cue,images/light_grey_box,images/light_grey_box,images/light_grey_box,images/light_grey_box,images/light_grey_box,0,0.0,0.15,0,42,42,8,,,,,,,,,,,,,204.2939264230663,None,204.2939264230663,None,204.2939264230663,None,205.30827612802386,None,205.30827612802386,None,205.30827612802386,None,0.0,0.15,205.50997879705392,205.69341861701105,205.50997879705392,205.69341861701105,205.50997879705392,205.69341861701105,space,1.4380107609322295,205.50997879705392,None,206.9619256700389,None,,,7,001,2020_Apr_18_1839,experiment,2020.1.3,59.59007650651281,
images/light_grey_box,images/light_grey_box,images/light_grey_box_with_cue,images/light_grey_box,images/light_grey_box,images/light_grey_box,0,0.1,0.25,0,43,43,58,,,,,,,,,,,,,207.47681726806331,None,207.47681726806331,None,207.47681726806331,None,208.49135689507239,None,208.49135689507239,None,208.49135689507239,None,0.3,0.44999999999999996,208.69360373809468,208.8270665280288,208.69360373809468,208.8270665280288,208.69360373809468,208.8270665280288,space,1.8211725209839642,208.69360373809468,None,210.52755278302357,None,,,7,001,2020_Apr_18_1839,experiment,2020.1.3,59.59007650651281,
images/light_grey_box_with_cue,images/light_grey_box,images/light_grey_box,images/light_grey_box,images/light_grey_box,images/light_grey_box,0,0.5,0.65,0,44,44,108,,,,,,,,,,,,,211.04258582601324,None,211.04258582601324,None,211.04258582601324,None,212.05731753003784,None,212.05731753003784,None,212.05731753003784,None,0.0,0.15,212.24177965405397,212.44178126309998,212.24177965405397,212.44178126309998,212.24177965405397,212.44178126309998,space,2.0711403030436486,212.24177965405397,None,214.3252257440472,None,,,7,001,2020_Apr_18_1839,experiment,2020.1.3,59.59007650651281,
images/light_grey_box,images/light_grey_box,images/light_grey_box_with_cue,images/light_grey_box,images/light_grey_box_with_target,images/light_grey_box,0,0.0,0.15,0,45,45,10,,,,,,,,,,,,,214.82596686808392,None,214.82596686808392,None,214.82596686808392,None,215.8424584880704,None,215.8424584880704,None,215.8424584880704,None,0.2,0.35,216.0266890610801,216.15910366503522,216.0266890610801,216.15910366503522,216.0266890610801,216.15910366503522,space,0.285765697946772,216.0266890610801,None,216.32419054000638,None,,,7,001,2020_Apr_18_1839,experiment,2020.1.3,59.59007650651281,
images/light_grey_box,images/light_grey_box,images/light_grey_box_with_cue,images/light_grey_box,images/light_grey_box_with_target,images/light_grey_box,0,0.5,0.65,0,46,46,111,,,,,,,,,,,,,216.8258504270343,None,216.8258504270343,None,216.8258504270343,None,217.8404374649981,None,217.8404374649981,None,217.8404374649981,None,0.0,0.15,218.05917929799762,218.30900329106953,218.05917929799762,218.30900329106953,218.05917929799762,218.30900329106953,space,3.8688429570756853,218.05917929799762,None,221.94193651305977,None,,,7,001,2020_Apr_18_1839,experiment,2020.1.3,59.59007650651281,
images/light_grey_box_with_cue,images/light_grey_box,images/light_grey_box,images/light_grey_box,images/light_grey_box_with_target,images/light_grey_box,0,0.05,0.2,0,47,47,20,,,,,,,,,,,,,222.44280012405943,None,222.44280012405943,None,222.44280012405943,None,223.45833265804686,None,223.45833265804686,None,223.45833265804686,None,0.3,0.44999999999999996,223.66001461504493,223.82608324405737,223.66001461504493,223.82608324405737,223.66001461504493,223.82608324405737,space,0.21939651598222554,223.66001461504493,None,223.89181259204634,None,,,7,001,2020_Apr_18_1839,experiment,2020.1.3,59.59007650651281,
images/light_grey_box,images/light_grey_box,images/light_grey_box_with_cue,images/light_grey_box,images/light_grey_box,images/light_grey_box_with_target,0,0.1,0.25,0,48,48,57,,,,,,,,,,,,,224.39256806101184,None,224.39256806101184,None,224.39256806101184,None,225.40754815703258,None,225.40754815703258,None,225.40754815703258,None,0.0,0.15,225.6093326919945,225.742535721045,225.6093326919945,225.742535721045,225.6093326919945,225.742535721045,space,0.4233738600742072,225.6093326919945,None,226.0441659920616,None,,,7,001,2020_Apr_18_1839,experiment,2020.1.3,59.59007650651281,
images/light_grey_box_with_cue,images/light_grey_box,images/light_grey_box,images/light_grey_box,images/light_grey_box_with_target,images/light_grey_box,0,0.2,0.35,0,49,49,60,,,,,,,,,,,,,226.5592418620363,None,226.5592418620363,None,226.5592418620363,None,227.5751841129968,None,227.5751841129968,None,227.5751841129968,None,0.5,0.65,227.7921134440694,227.95896363409702,227.7921134440694,227.95896363409702,227.7921134440694,227.95896363409702,space,2.755516626057215,227.7921134440694,None,230.56174203602131,None,,,7,001,2020_Apr_18_1839,experiment,2020.1.3,59.59007650651281,
images/light_grey_box_with_cue,images/light_grey_box,images/light_grey_box,images/light_grey_box_with_target,images/light_grey_box,images/light_grey_box,0,0.2,0.35,0,50,50,66,,,,,,,,,,,,,231.07730626501143,None,231.07730626501143,None,231.07730626501143,None,232.091763743083,None,232.091763743083,None,232.091763743083,None,0.05,0.2,232.29320492502302,232.42646323610097,232.29320492502302,232.42646323610097,232.29320492502302,232.42646323610097,space,0.5386972790583968,232.29320492502302,None,232.84452571999282,None,,,7,001,2020_Apr_18_1839,experiment,2020.1.3,59.59007650651281,
images/light_grey_box,images/light_grey_box,images/light_grey_box_with_cue,images/light_grey_box,images/light_grey_box,images/light_grey_box,0,0.0,0.15,0,51,51,19,,,,,,,,,,,,,233.3597390340874,None,233.3597390340874,None,233.3597390340874,None,234.37477267999202,None,234.37477267999202,None,234.37477267999202,None,0.0,0.15,234.6097413430689,234.75963310908992,234.6097413430689,234.75963310908992,234.6097413430689,234.75963310908992,space,1.95193752204068,234.6097413430689,None,236.57391158898827,None,,,7,001,2020_Apr_18_1839,experiment,2020.1.3,59.59007650651281,
images/light_grey_box,images/light_grey_box,images/light_grey_box,images/light_grey_box,images/light_grey_box_with_target,images/light_grey_box,0,0.5,0.65,0,52,52,113,,,,,,,,,,,,,237.07572745205835,None,237.07572745205835,None,237.07572745205835,None,238.08197172509972,None,238.08197172509972,None,238.08197172509972,None,0.05,0.2,238.3247701250948,238.52549635409378,238.3247701250948,238.52549635409378,238.3247701250948,238.52549635409378,space,0.4885996390366927,238.3247701250948,None,238.82720565306954,None,,,7,001,2020_Apr_18_1839,experiment,2020.1.3,59.59007650651281,
images/light_grey_box_with_cue,images/light_grey_box,images/light_grey_box,images/light_grey_box,images/light_grey_box_with_target,images/light_grey_box,0,0.3,0.45,0,53,53,84,,,,,,,,,,,,,239.3423104120884,None,239.3423104120884,None,239.3423104120884,None,240.35712852003053,None,240.35712852003053,None,240.35712852003053,None,0.5,0.65,240.52926855301484,240.7417245330289,240.52926855301484,240.7417245330289,240.52926855301484,240.7417245330289,space,0.31522885395679623,240.52926855301484,None,240.85802847705781,None,,,7,001,2020_Apr_18_1839,experiment,2020.1.3,59.59007650651281,
images/light_grey_box_with_cue,images/light_grey_box,images/light_grey_box,images/light_grey_box,images/light_grey_box_with_target,images/light_grey_box,0,0.0,0.15,0,54,54,4,,,,,,,,,,,,,241.35870516009163,None,241.35870516009163,None,241.35870516009163,None,242.37412300310098,None,242.37412300310098,None,242.37412300310098,None,0.05,0.2,242.5426469660597,242.7253374030115,242.5426469660597,242.7253374030115,242.5426469660597,242.7253374030115,space,0.303899566992186,242.5426469660597,None,242.85868295503315,None,,,7,001,2020_Apr_18_1839,experiment,2020.1.3,59.59007650651281,
images/light_grey_box,images/light_grey_box,images/light_grey_box_with_cue,images/light_grey_box,images/light_grey_box,images/light_grey_box,0,0.05,0.2,0,55,55,38,,,,,,,,,,,,,243.35881475207862,None,243.35881475207862,None,243.35881475207862,None,244.37123570998665,None,244.37123570998665,None,244.37123570998665,None,0.2,0.35,244.64257928007282,244.74225143005606,244.64257928007282,244.74225143005606,244.64257928007282,244.74225143005606,space,1.0369420930510387,244.64257928007282,None,245.69296302599832,None,,,7,001,2020_Apr_18_1839,experiment,2020.1.3,59.59007650651281,
images/light_grey_box_with_cue,images/light_grey_box,images/light_grey_box,images/light_grey_box,images/light_grey_box_with_target,images/light_grey_box,0,0.3,0.45,0,56,56,80,,,,,,,,,,,,,246.19217303709593,None,246.19217303709593,None,246.19217303709593,None,247.20732903108,None,247.20732903108,None,247.20732903108,None,0.2,0.35,247.37309384800028,247.5922600880731,247.37309384800028,247.5922600880731,247.37309384800028,247.5922600880731,space,0.3558530919253826,247.37309384800028,None,247.74248035403434,None,,,7,001,2020_Apr_18_1839,experiment,2020.1.3,59.59007650651281,
images/light_grey_box,images/light_grey_box,images/light_grey_box_with_cue,images/light_grey_box,images/light_grey_box_with_target,images/light_grey_box,0,0.0,0.15,0,57,57,13,,,,,,,,,,,,,248.2421066580573,None,248.2421066580573,None,248.2421066580573,None,249.2572796420427,None,249.2572796420427,None,249.2572796420427,None,0.2,0.35,249.4227612160612,249.60880697704852,249.4227612160612,249.60880697704852,249.4227612160612,249.60880697704852,space,0.3393772399285808,249.4227612160612,None,249.7740764330374,None,,,7,001,2020_Apr_18_1839,experiment,2020.1.3,59.59007650651281,
images/light_grey_box_with_cue,images/light_grey_box,images/light_grey_box,images/light_grey_box,images/light_grey_box,images/light_grey_box,0,0.1,0.25,0,58,58,48,,,,,,,,,,,,,250.27493340498768,None,250.27493340498768,None,250.27493340498768,None,251.29084014799446,None,251.29084014799446,None,251.29084014799446,None,0.2,0.35,251.46419296308886,251.72486905008554,251.46419296308886,251.72486905008554,251.46419296308886,251.72486905008554,space,0.4811367769725621,251.46419296308886,None,251.9581876579905,None,,,7,001,2020_Apr_18_1839,experiment,2020.1.3,59.59007650651281,
images/light_grey_box_with_cue,images/light_grey_box,images/light_grey_box,images/light_grey_box,images/light_grey_box_with_target,images/light_grey_box,0,0.2,0.35,0,59,59,62,,,,,,,,,,,,,252.45925195107702,None,252.45925195107702,None,252.45925195107702,None,253.4729928310262,None,253.4729928310262,None,253.4729928310262,None,0.2,0.35,253.67741415300407,253.77563799498603,253.67741415300407,253.77563799498603,253.67741415300407,253.77563799498603,space,0.4372746469452977,253.67741415300407,None,254.12589174101595,None,,,7,001,2020_Apr_18_1839,experiment,2020.1.3,59.59007650651281,
images/light_grey_box,images/light_grey_box,images/light_grey_box_with_cue,images/light_grey_box,images/light_grey_box,images/light_grey_box_with_target,0,0.0,0.15,0,60,60,17,,,,,,,,,,,,,254.62559199798852,None,254.62559199798852,None,254.62559199798852,None,255.6398735040566,None,255.6398735040566,None,255.6398735040566,None,0.0,0.15,255.80649938806891,256.00891580001917,255.80649938806891,256.00891580001917,255.80649938806891,256.00891580001917,space,0.33853280800394714,255.80649938806891,None,256.15824242006056,None,,,7,001,2020_Apr_18_1839,experiment,2020.1.3,59.59007650651281,
images/light_grey_box_with_cue,images/light_grey_box,images/light_grey_box,images/light_grey_box,images/light_grey_box,images/light_grey_box_with_target,0,0.1,0.25,0,61,61,47,,,,,,,,,,,,,256.65897019708063,None,256.65897019708063,None,256.65897019708063,None,257.674005227047,None,257.674005227047,None,257.674005227047,None,0.1,0.25,257.89143278007396,258.0253976980457,257.89143278007396,258.0253976980457,257.89143278007396,258.0253976980457,space,0.29085875302553177,257.89143278007396,None,258.19875174504705,None,,,7,001,2020_Apr_18_1839,experiment,2020.1.3,59.59007650651281,
images/light_grey_box,images/light_grey_box,images/light_grey_box,images/light_grey_box,images/light_grey_box_with_target,images/light_grey_box,0,0.3,0.45,0,62,62,93,,,,,,,,,,,,,258.71021450601984,None,258.71021450601984,None,258.71021450601984,None,259.72074097499717,None,259.72074097499717,None,259.72074097499717,None,0.5,0.65,259.8723688219907,260.10924039501697,259.8723688219907,260.10924039501697,259.8723688219907,260.10924039501697,space,0.34167343110311776,259.8723688219907,None,260.22647791705094,None,,,7,001,2020_Apr_18_1839,experiment,2020.1.3,59.59007650651281,
images/light_grey_box_with_cue,images/light_grey_box,images/light_grey_box,images/light_grey_box,images/light_grey_box_with_target,images/light_grey_box,0,0.3,0.45,0,63,63,81,,,,,,,,,,,,,260.7258717700606,None,260.7258717700606,None,260.7258717700606,None,261.74056853400543,None,261.74056853400543,None,261.74056853400543,None,0.2,0.35,261.93170491908677,262.1259455080144,261.93170491908677,262.1259455080144,261.93170491908677,262.1259455080144,space,0.2978006820194423,261.93170491908677,None,262.24307458510157,None,,,7,001,2020_Apr_18_1839,experiment,2020.1.3,59.59007650651281,
images/light_grey_box,images/light_grey_box,images/light_grey_box_with_cue,images/light_grey_box,images/light_grey_box,images/light_grey_box,0,0.2,0.35,0,64,64,78,,,,,,,,,,,,,262.7426376719959,None,262.7426376719959,None,262.7426376719959,None,263.7557551560458,None,263.7557551560458,None,263.7557551560458,None,0.1,0.25,264.00885457906406,264.0588543890044,264.00885457906406,264.0588543890044,264.00885457906406,264.0588543890044,space,0.21789141895715147,264.00885457906406,None,264.24009488208685,None,,,7,001,2020_Apr_18_1839,experiment,2020.1.3,59.59007650651281,
images/light_grey_box_with_cue,images/light_grey_box,images/light_grey_box,images/light_grey_box,images/light_grey_box_with_target,images/light_grey_box,0,0.05,0.2,0,65,65,23,,,,,,,,,,,,,264.7415082739899,None,264.7415082739899,None,264.7415082739899,None,265.7520483440021,None,265.7520483440021,None,265.7520483440021,None,0.2,0.35,265.92113801906817,266.0918400239898,265.92113801906817,266.0918400239898,265.92113801906817,266.0918400239898,space,0.40378390706609935,265.92113801906817,None,266.34042278607376,None,,,7,001,2020_Apr_18_1839,experiment,2020.1.3,59.59007650651281,
images/light_grey_box_with_cue,images/light_grey_box,images/light_grey_box,images/light_grey_box,images/light_grey_box,images/light_grey_box,0,0.2,0.35,0,66,66,69,,,,,,,,,,,,,266.8412631630199,None,266.8412631630199,None,266.8412631630199,None,267.8570516339969,None,267.8570516339969,None,267.8570516339969,None,0.0,0.15,268.12540824804455,268.2086233870359,268.12540824804455,268.2086233870359,268.12540824804455,268.2086233870359,space,2.1204166340176016,268.12540824804455,None,270.25884548202157,None,,,7,001,2020_Apr_18_1839,experiment,2020.1.3,59.59007650651281,
images/light_grey_box,images/light_grey_box,images/light_grey_box,images/light_grey_box,images/light_grey_box_with_target,images/light_grey_box,0,0.1,0.25,0,67,67,55,,,,,,,,,,,,,270.75836037204135,None,270.75836037204135,None,270.75836037204135,None,271.7672523810761,None,271.7672523810761,None,271.7672523810761,None,0.1,0.25,272.0079855850199,272.158395754057,272.0079855850199,272.158395754057,272.0079855850199,272.158395754057,space,0.40382794104516506,272.0079855850199,None,272.4240435180254,None,,,7,001,2020_Apr_18_1839,experiment,2020.1.3,59.59007650651281,
images/light_grey_box_with_cue,images/light_grey_box,images/light_grey_box,images/light_grey_box,images/light_grey_box,images/light_grey_box,0,0.5,0.65,0,68,68,109,,,,,,,,,,,,,272.92554185399786,None,272.92554185399786,None,272.92554185399786,None,273.9392040380044,None,273.9392040380044,None,273.9392040380044,None,0.05,0.2,274.1416039840551,274.32542273704894,274.1416039840551,274.32542273704894,274.1416039840551,274.32542273704894,space,3.8392788589699194,274.1416039840551,None,277.9926871469943,None,,,7,001,2020_Apr_18_1839,experiment,2020.1.3,59.59007650651281,
images/light_grey_box,images/light_grey_box,images/light_grey_box_with_cue,images/light_grey_box,images/light_grey_box,images/light_grey_box,0,0.5,0.65,0,69,69,119,,,,,,,,,,,,,278.49175313301384,None,278.49175313301384,None,278.49175313301384,None,279.506029776996,None,279.506029776996,None,279.506029776996,None,0.3,0.44999999999999996,279.70849530305713,279.85844574600924,279.70849530305713,279.85844574600924,279.70849530305713,279.85844574600924,space,2.8708432390121743,279.70849530305713,None,282.59311641403474,None,,,7,001,2020_Apr_18_1839,experiment,2020.1.3,59.59007650651281,
images/light_grey_box,images/light_grey_box,images/light_grey_box_with_cue,images/light_grey_box,images/light_grey_box_with_target,images/light_grey_box,0,0.2,0.35,0,70,70,72,,,,,,,,,,,,,283.108221884002,None,283.108221884002,None,283.108221884002,None,284.1234531630762,None,284.1234531630762,None,284.1234531630762,None,0.0,0.15,284.35844469605945,284.49120731209405,284.35844469605945,284.49120731209405,284.35844469605945,284.49120731209405,space,0.4912819489836693,284.35844469605945,None,284.86539508600254,None,,,7,001,2020_Apr_18_1839,experiment,2020.1.3,59.59007650651281,
images/light_grey_box,images/light_grey_box,images/light_grey_box_with_cue,images/light_grey_box,images/light_grey_box,images/light_grey_box_with_target,0,0.2,0.35,0,71,71,77,,,,,,,,,,,,,285.3769117500633,None,285.3769117500633,None,285.3769117500633,None,286.3927729430143,None,286.3927729430143,None,286.3927729430143,None,0.0,0.15,286.5399529860588,286.6585735080298,286.5399529860588,286.6585735080298,286.5399529860588,286.6585735080298,space,0.3556393099715933,286.5399529860588,None,286.90858969208784,None,,,7,001,2020_Apr_18_1839,experiment,2020.1.3,59.59007650651281,
images/light_grey_box,images/light_grey_box,images/light_grey_box_with_cue,images/light_grey_box,images/light_grey_box,images/light_grey_box,0,0.0,0.15,0,72,72,18,,,,,,,,,,,,,287.4085506059928,None,287.4085506059928,None,287.4085506059928,None,288.4217003789963,None,288.4217003789963,None,288.4217003789963,None,0.1,0.25,288.6423383629881,288.77570737700444,288.6423383629881,288.77570737700444,288.6423383629881,288.77570737700444,space,2.5842947909841314,288.6423383629881,None,291.23986566404346,None,,,7,001,2020_Apr_18_1839,experiment,2020.1.3,59.59007650651281,
images/light_grey_box_with_cue,images/light_grey_box,images/light_grey_box,images/light_grey_box,images/light_grey_box,images/light_grey_box,0,0.05,0.2,0,73,73,29,,,,,,,,,,,,,291.74124326906167,None,291.74124326906167,None,291.74124326906167,None,292.7565002311021,None,292.7565002311021,None,292.7565002311021,None,0.3,0.44999999999999996,293.007360569085,293.258233832079,293.007360569085,293.258233832079,293.007360569085,293.258233832079,space,1.6885309369536117,293.007360569085,None,294.7081474660663,None,,,7,001,2020_Apr_18_1839,experiment,2020.1.3,59.59007650651281,
images/light_grey_box,images/light_grey_box,images/light_grey_box_with_cue,images/light_grey_box,images/light_grey_box,images/light_grey_box,0,0.1,0.25,0,74,74,59,,,,,,,,,,,,,295.2080583610805,None,295.2080583610805,None,295.2080583610805,None,296.2176178160589,None,296.2176178160589,None,296.2176178160589,None,0.5,0.65,296.4237427560147,296.6070833420381,296.4237427560147,296.6070833420381,296.4237427560147,296.6070833420381,space,0.9052183820167556,296.4237427560147,None,297.3428013060475,None,,,7,001,2020_Apr_18_1839,experiment,2020.1.3,59.59007650651281,
images/light_grey_box,images/light_grey_box,images/light_grey_box_with_cue,images/light_grey_box,images/light_grey_box_with_target,images/light_grey_box,0,0.0,0.15,0,75,75,11,,,,,,,,,,,,,297.8581918179989,None,297.8581918179989,None,297.8581918179989,None,298.87226317008026,None,298.87226317008026,None,298.87226317008026,None,0.5,0.65,299.0746242470341,299.1583137100097,299.0746242470341,299.1583137100097,299.0746242470341,299.1583137100097,space,0.5371509209508076,299.0746242470341,None,299.62488682509866,None,,,7,001,2020_Apr_18_1839,experiment,2020.1.3,59.59007650651281,
images/light_grey_box,images/light_grey_box,images/light_grey_box_with_cue,images/light_grey_box,images/light_grey_box_with_target,images/light_grey_box,0,0.1,0.25,0,76,76,52,,,,,,,,,,,,,300.1248957590433,None,300.1248957590433,None,300.1248957590433,None,301.1398560680682,None,301.1398560680682,None,301.1398560680682,None,0.2,0.35,301.328607364092,301.44136954809073,301.328607364092,301.44136954809073,301.328607364092,301.44136954809073,space,0.2982492329319939,301.328607364092,None,301.6402235260466,None,,,7,001,2020_Apr_18_1839,experiment,2020.1.3,59.59007650651281,
images/light_grey_box,images/light_grey_box,images/light_grey_box_with_cue,images/light_grey_box,images/light_grey_box_with_target,images/light_grey_box,0,0.2,0.35,0,77,77,70,,,,,,,,,,,,,302.1413927139947,None,302.1413927139947,None,302.1413927139947,None,303.155782870017,None,303.155782870017,None,303.155782870017,None,0.2,0.35,303.32184690609574,303.50809334102087,303.32184690609574,303.50809334102087,303.32184690609574,303.50809334102087,space,0.37111301510594785,303.32184690609574,None,303.7070787610719,None,,,7,001,2020_Apr_18_1839,experiment,2020.1.3,59.59007650651281,
images/light_grey_box,images/light_grey_box,images/light_grey_box,images/light_grey_box,images/light_grey_box_with_target,images/light_grey_box,0,0.05,0.2,0,78,78,36,,,,,,,,,,,,,304.2080376520753,None,304.2080376520753,None,304.2080376520753,None,305.2162104740273,None,305.2162104740273,None,305.2162104740273,None,0.05,0.2,305.47446751303505,305.5413156070281,305.47446751303505,305.5413156070281,305.47446751303505,305.5413156070281,space,0.36869661207310855,305.47446751303505,None,305.8574022090761,None,,,7,001,2020_Apr_18_1839,experiment,2020.1.3,59.59007650651281,
images/light_grey_box_with_cue,images/light_grey_box,images/light_grey_box,images/light_grey_box,images/light_grey_box_with_target,images/light_grey_box,0,0.5,0.65,0,79,79,104,,,,,,,,,,,,,306.357935438049,None,306.357935438049,None,306.357935438049,None,307.3709772640141,None,307.3709772640141,None,307.3709772640141,None,0.3,0.44999999999999996,307.5387545489939,307.75732022803277,307.5387545489939,307.75732022803277,307.5387545489939,307.75732022803277,space,0.3231454970082268,307.5387545489939,None,307.87490986508783,None,,,7,001,2020_Apr_18_1839,experiment,2020.1.3,59.59007650651281,
images/light_grey_box,images/light_grey_box,images/light_grey_box_with_cue,images/light_grey_box,images/light_grey_box_with_target,images/light_grey_box,0,0.1,0.25,0,80,80,51,,,,,,,,,,,,,308.3745075770421,None,308.3745075770421,None,308.3745075770421,None,309.38725022703875,None,309.38725022703875,None,309.38725022703875,None,0.2,0.35,309.54737247305457,309.7417662680382,309.54737247305457,309.7417662680382,309.54737247305457,309.7417662680382,space,0.21280682203359902,309.54737247305457,None,309.7742082530167,None,,,7,001,2020_Apr_18_1839,experiment,2020.1.3,59.59007650651281,
images/light_grey_box,images/light_grey_box,images/light_grey_box,images/light_grey_box,images/light_grey_box_with_target,images/light_grey_box,0,0.5,0.65,0,81,81,115,,,,,,,,,,,,,310.27337273804005,None,310.27337273804005,None,310.27337273804005,None,311.28131182398647,None,311.28131182398647,None,311.28131182398647,None,0.2,0.35,311.46548900706694,311.69037964206655,311.46548900706694,311.69037964206655,311.46548900706694,311.69037964206655,space,0.32985214702785015,311.46548900706694,None,311.8108725080965,None,,,7,001,2020_Apr_18_1839,experiment,2020.1.3,59.59007650651281,
images/light_grey_box,images/light_grey_box,images/light_grey_box_with_cue,images/light_grey_box,images/light_grey_box_with_target,images/light_grey_box,0,0.05,0.2,0,82,82,30,,,,,,,,,,,,,312.32616331009194,None,312.32616331009194,None,312.32616331009194,None,313.3424957920797,None,313.3424957920797,None,313.3424957920797,None,0.1,0.25,313.64224871306214,313.67564863408916,313.64224871306214,313.67564863408916,313.64224871306214,313.67564863408916,space,0.12064153200481087,313.64224871306214,None,313.77664710104,None,,,7,001,2020_Apr_18_1839,experiment,2020.1.3,59.59007650651281,
images/light_grey_box_with_cue,images/light_grey_box,images/light_grey_box,images/light_grey_box,images/light_grey_box,images/light_grey_box_with_target,0,0.0,0.15,0,83,83,7,,,,,,,,,,,,,314.27594951400533,None,314.27594951400533,None,314.27594951400533,None,315.29004230105784,None,315.29004230105784,None,315.29004230105784,None,0.5,0.65,315.4801571019925,None,315.4801571019925,None,315.4801571019925,None,space,0.2643392919562757,315.4801571019925,None,315.75880535598844,None,,,7,001,2020_Apr_18_1839,experiment,2020.1.3,59.59007650651281,
images/light_grey_box_with_cue,images/light_grey_box,images/light_grey_box,images/light_grey_box,images/light_grey_box,images/light_grey_box_with_target,0,0.3,0.45,0,84,84,87,,,,,,,,,,,,,316.25915488705505,None,316.25915488705505,None,316.25915488705505,None,317.2739757230738,None,317.2739757230738,None,317.2739757230738,None,0.1,0.25,317.55866525298916,317.64175551303197,317.55866525298916,317.64175551303197,317.55866525298916,317.64175551303197,space,0.13353660993743688,317.55866525298916,None,317.70832708501257,None,,,7,001,2020_Apr_18_1839,experiment,2020.1.3,59.59007650651281,
images/light_grey_box_with_cue,images/light_grey_box,images/light_grey_box,images/light_grey_box,images/light_grey_box_with_target,images/light_grey_box,0,0.1,0.25,0,85,85,42,,,,,,,,,,,,,318.2088705240749,None,318.2088705240749,None,318.2088705240749,None,319.2226450580638,None,319.2226450580638,None,319.2226450580638,None,0.0,0.15,319.39872741606086,319.5748082010541,319.39872741606086,319.5748082010541,319.39872741606086,319.5748082010541,space,0.24572641297709197,319.39872741606086,None,319.65797999606,None,,,7,001,2020_Apr_18_1839,experiment,2020.1.3,59.59007650651281,
images/light_grey_box_with_cue,images/light_grey_box,images/light_grey_box,images/light_grey_box,images/light_grey_box_with_target,images/light_grey_box,0,0.2,0.35,0,86,86,61,,,,,,,,,,,,,320.15790856804233,None,320.15790856804233,None,320.15790856804233,None,321.18360473704524,None,321.18360473704524,None,321.18360473704524,None,0.5,0.65,321.3366513530491,321.474370017997,321.3366513530491,321.474370017997,321.3366513530491,321.474370017997,space,0.290948340902105,321.3366513530491,None,321.64024195901584,None,,,7,001,2020_Apr_18_1839,experiment,2020.1.3,59.59007650651281,
images/light_grey_box_with_cue,images/light_grey_box,images/light_grey_box,images/light_grey_box,images/light_grey_box_with_target,images/light_grey_box,0,0.0,0.15,0,87,87,2,,,,,,,,,,,,,322.14138410799205,None,322.14138410799205,None,322.14138410799205,None,323.17239307099953,None,323.17239307099953,None,323.17239307099953,None,0.3,0.44999999999999996,323.32174692698754,323.47448474005796,323.32174692698754,323.47448474005796,323.32174692698754,323.47448474005796,space,0.27190741105005145,323.32174692698754,None,323.6064045840176,None,,,7,001,2020_Apr_18_1839,experiment,2020.1.3,59.59007650651281,
images/light_grey_box_with_cue,images/light_grey_box,images/light_grey_box,images/light_grey_box,images/light_grey_box_with_target,images/light_grey_box,0,0.3,0.45,0,88,88,82,,,,,,,,,,,,,324.10701561009046,None,324.10701561009046,None,324.10701561009046,None,325.1229386799969,None,325.1229386799969,None,325.1229386799969,None,0.0,0.15,325.32395446999,325.4910508610774,325.32395446999,325.4910508610774,325.32395446999,325.4910508610774,space,0.22027895599603653,325.32395446999,None,325.5565128480084,None,,,7,001,2020_Apr_18_1839,experiment,2020.1.3,59.59007650651281,
images/light_grey_box,images/light_grey_box,images/light_grey_box_with_cue,images/light_grey_box,images/light_grey_box_with_target,images/light_grey_box,0,0.05,0.2,0,89,89,31,,,,,,,,,,,,,326.0577764509944,None,326.0577764509944,None,326.0577764509944,None,327.06974838802125,None,327.06974838802125,None,327.06974838802125,None,0.0,0.15,327.2743117870996,327.42427420499735,327.2743117870996,327.42427420499735,327.2743117870996,327.42427420499735,space,0.2698744039516896,327.2743117870996,None,327.556981818052,None,,,7,001,2020_Apr_18_1839,experiment,2020.1.3,59.59007650651281,
images/light_grey_box_with_cue,images/light_grey_box,images/light_grey_box,images/light_grey_box,images/light_grey_box_with_target,images/light_grey_box,0,0.0,0.15,0,90,90,0,,,,,,,,,,,,,328.0572470150655,None,328.0572470150655,None,328.0572470150655,None,329.07071498199366,None,329.07071498199366,None,329.07071498199366,None,0.0,0.15,329.2747035260545,329.374466725043,329.2747035260545,329.374466725043,329.2747035260545,329.374466725043,space,0.26855751394759864,329.2747035260545,None,329.55642241204623,None,,,7,001,2020_Apr_18_1839,experiment,2020.1.3,59.59007650651281,
images/light_grey_box,images/light_grey_box,images/light_grey_box,images/light_grey_box,images/light_grey_box_with_target,images/light_grey_box,0,0.3,0.45,0,91,91,94,,,,,,,,,,,,,330.0571722550085,None,330.0571722550085,None,330.0571722550085,None,331.06614035600796,None,331.06614035600796,None,331.06614035600796,None,0.3,0.44999999999999996,331.27351695508696,331.4569831910776,331.27351695508696,331.4569831910776,331.27351695508696,331.4569831910776,space,0.21944336697924882,331.27351695508696,None,331.5061136781005,None,,,7,001,2020_Apr_18_1839,experiment,2020.1.3,59.59007650651281,
images/light_grey_box_with_cue,images/light_grey_box,images/light_grey_box,images/light_grey_box,images/light_grey_box_with_target,images/light_grey_box,0,0.1,0.25,0,92,92,44,,,,,,,,,,,,,332.0068817420397,None,332.0068817420397,None,332.0068817420397,None,333.02026361308526,None,333.02026361308526,None,333.02026361308526,None,0.0,0.15,333.19741836807225,333.3908329079859,333.19741836807225,333.3908329079859,333.19741836807225,333.3908329079859,space,0.23025078896898776,333.19741836807225,None,333.440365536022,None,,,7,001,2020_Apr_18_1839,experiment,2020.1.3,59.59007650651281,
images/light_grey_box,images/light_grey_box,images/light_grey_box_with_cue,images/light_grey_box,images/light_grey_box_with_target,images/light_grey_box,0,0.0,0.15,0,93,93,14,,,,,,,,,,,,,333.94048601109535,None,333.94048601109535,None,333.94048601109535,None,334.9576477520168,None,334.9576477520168,None,334.9576477520168,None,0.3,0.44999999999999996,335.1906513530994,335.37409716809634,335.1906513530994,335.37409716809634,335.1906513530994,335.37409716809634,space,0.2043256249744445,335.1906513530994,None,335.40847445908,None,,,7,001,2020_Apr_18_1839,experiment,2020.1.3,59.59007650651281,
images/light_grey_box_with_cue,images/light_grey_box,images/light_grey_box,images/light_grey_box,images/light_grey_box_with_target,images/light_grey_box,0,0.05,0.2,0,94,94,21,,,,,,,,,,,,,335.92393203708343,None,335.92393203708343,None,335.92393203708343,None,336.9409031830728,None,336.9409031830728,None,336.9409031830728,None,0.5,0.65,337.1239892450394,337.2412550600711,337.1239892450394,337.2412550600711,337.1239892450394,337.2412550600711,space,0.2532423980301246,337.1239892450394,None,337.38975544204004,None,,,7,001,2020_Apr_18_1839,experiment,2020.1.3,59.59007650651281,
images/light_grey_box_with_cue,images/light_grey_box,images/light_grey_box,images/light_grey_box,images/light_grey_box_with_target,images/light_grey_box,0,0.05,0.2,0,95,95,22,,,,,,,,,,,,,337.89116257603746,None,337.89116257603746,None,337.89116257603746,None,338.9066879990278,None,338.9066879990278,None,338.9066879990278,None,0.3,0.44999999999999996,339.0820734160952,339.3084948520409,339.0820734160952,339.3084948520409,339.0820734160952,339.3084948520409,space,0.23121924803126603,339.0820734160952,None,339.32825077709276,None,,,7,001,2020_Apr_18_1839,experiment,2020.1.3,59.59007650651281,
images/light_grey_box_with_cue,images/light_grey_box,images/light_grey_box,images/light_grey_box,images/light_grey_box_with_target,images/light_grey_box,0,0.0,0.15,0,96,96,5,,,,,,,,,,,,,339.84312617301475,None,339.84312617301475,None,339.84312617301475,None,340.857514449046,None,340.857514449046,None,340.857514449046,None,0.5,0.65,341.05865324207116,None,341.05865324207116,None,341.05865324207116,None,space,0.20545013307128102,341.05865324207116,None,341.27679910708684,None,,,7,001,2020_Apr_18_1839,experiment,2020.1.3,59.59007650651281,
images/light_grey_box,images/light_grey_box,images/light_grey_box_with_cue,images/light_grey_box,images/light_grey_box_with_target,images/light_grey_box,0,0.5,0.65,0,97,97,112,,,,,,,,,,,,,341.79193555004895,None,341.79193555004895,None,341.79193555004895,None,342.80699040798936,None,342.80699040798936,None,342.80699040798936,None,0.2,0.35,342.95436374808196,343.14169451605994,342.95436374808196,343.14169451605994,342.95436374808196,343.14169451605994,space,0.30683591996785253,342.95436374808196,None,343.2741319310153,None,,,7,001,2020_Apr_18_1839,experiment,2020.1.3,59.59007650651281,
images/light_grey_box,images/light_grey_box,images/light_grey_box_with_cue,images/light_grey_box,images/light_grey_box,images/light_grey_box,0,0.05,0.2,0,98,98,39,,,,,,,,,,,,,343.7748602339998,None,343.7748602339998,None,343.7748602339998,None,344.7929622090887,None,344.7929622090887,None,344.7929622090887,None,0.1,0.25,344.9762149420567,345.1077406130498,344.9762149420567,345.1077406130498,344.9762149420567,345.1077406130498,space,0.3507075519300997,344.9762149420567,None,345.33915418898687,None,,,7,001,2020_Apr_18_1839,experiment,2020.1.3,59.59007650651281,
images/light_grey_box_with_cue,images/light_grey_box,images/light_grey_box,images/light_grey_box,images/light_grey_box_with_target,images/light_grey_box,0,0.05,0.2,0,99,99,25,,,,,,,,,,,,,345.8403759110952,None,345.8403759110952,None,345.8403759110952,None,346.8511494800914,None,346.8511494800914,None,346.8511494800914,None,0.1,0.25,347.04367654107045,347.2731043470558,347.04367654107045,347.2731043470558,347.04367654107045,347.2731043470558,space,0.24915990501176566,347.04367654107045,None,347.305854344042,None,,,7,001,2020_Apr_18_1839,experiment,2020.1.3,59.59007650651281,
images/light_grey_box_with_cue,images/light_grey_box,images/light_grey_box,images/light_grey_box_with_target,images/light_grey_box,images/light_grey_box,0,0.0,0.15,0,100,100,6,,,,,,,,,,,,,347.80680147500243,None,347.80680147500243,None,347.80680147500243,None,348.82243924809154,None,348.82243924809154,None,348.82243924809154,None,0.2,0.35,349.04018691310193,349.14083507598843,349.04018691310193,349.14083507598843,349.04018691310193,349.14083507598843,space,0.27121454395819455,349.04018691310193,None,349.32334380503744,None,,,7,001,2020_Apr_18_1839,experiment,2020.1.3,59.59007650651281,
images/light_grey_box_with_cue,images/light_grey_box,images/light_grey_box,images/light_grey_box,images/light_grey_box_with_target,images/light_grey_box,0,0.0,0.15,0,101,101,3,,,,,,,,,,,,,349.82337699609343,None,349.82337699609343,None,349.82337699609343,None,350.8377255729865,None,350.8377255729865,None,350.8377255729865,None,0.3,0.44999999999999996,351.0281528290361,351.19079977006186,351.0281528290361,351.19079977006186,351.0281528290361,351.19079977006186,space,0.21611632104031742,351.0281528290361,None,351.2570801550755,None,,,7,001,2020_Apr_18_1839,experiment,2020.1.3,59.59007650651281,
images/light_grey_box,images/light_grey_box,images/light_grey_box_with_cue,images/light_grey_box,images/light_grey_box,images/light_grey_box,0,0.3,0.45,0,102,102,98,,,,,,,,,,,,,351.75755076808855,None,351.75755076808855,None,351.75755076808855,None,352.7705704430118,None,352.7705704430118,None,352.7705704430118,None,0.2,0.35,353.0234805200016,353.10718296305276,353.0234805200016,353.10718296305276,353.0234805200016,353.10718296305276,space,0.21764305303804576,353.0234805200016,None,353.25668556208257,None,,,7,001,2020_Apr_18_1839,experiment,2020.1.3,59.59007650651281,
images/light_grey_box,images/light_grey_box,images/light_grey_box_with_cue,images/light_grey_box_with_target,images/light_grey_box,images/light_grey_box,0,0.0,0.15,0,103,103,16,,,,,,,,,,,,,353.75734930403996,None,353.75734930403996,None,353.75734930403996,None,354.77025800803676,None,354.77025800803676,None,354.77025800803676,None,0.05,0.2,355.00677310302854,355.0741420000559,355.00677310302854,355.0741420000559,355.00677310302854,355.0741420000559,space,1.987518357927911,355.00677310302854,None,357.00688015006017,None,,,7,001,2020_Apr_18_1839,experiment,2020.1.3,59.59007650651281,
images/light_grey_box_with_cue,images/light_grey_box,images/light_grey_box,images/light_grey_box,images/light_grey_box_with_target,images/light_grey_box,0,0.5,0.65,0,104,104,102,,,,,,,,,,,,,357.5071567289997,None,357.5071567289997,None,357.5071567289997,None,358.5218622360844,None,358.5218622360844,None,358.5218622360844,None,0.1,0.25,358.7236289010616,358.89044079207815,358.7236289010616,358.89044079207815,358.7236289010616,358.89044079207815,space,0.28448009595740587,358.7236289010616,None,359.02324858901557,None,,,7,001,2020_Apr_18_1839,experiment,2020.1.3,59.59007650651281,
images/light_grey_box,images/light_grey_box,images/light_grey_box_with_cue,images/light_grey_box,images/light_grey_box,images/light_grey_box_with_target,0,0.3,0.45,0,105,105,97,,,,,,,,,,,,,359.5239682000829,None,359.5239682000829,None,359.5239682000829,None,360.53954240703024,None,360.53954240703024,None,360.53954240703024,None,0.2,0.35,360.7416082120035,360.89085573505145,360.7416082120035,360.89085573505145,360.7416082120035,360.89085573505145,space,0.305041408049874,360.7416082120035,None,361.05864153802395,None,,,7,001,2020_Apr_18_1839,experiment,2020.1.3,59.59007650651281,
images/light_grey_box,images/light_grey_box,images/light_grey_box,images/light_grey_box,images/light_grey_box_with_target,images/light_grey_box,0,0.2,0.35,0,106,106,76,,,,,,,,,,,,,361.5740330989938,None,361.5740330989938,None,361.5740330989938,None,362.58350891200826,None,362.58350891200826,None,362.58350891200826,None,0.3,0.44999999999999996,362.7903595099924,362.97378815407865,362.7903595099924,362.97378815407865,362.7903595099924,362.97378815407865,space,0.2569212199887261,362.7903595099924,None,363.0595727490727,None,,,7,001,2020_Apr_18_1839,experiment,2020.1.3,59.59007650651281,
images/light_grey_box,images/light_grey_box,images/light_grey_box_with_cue,images/light_grey_box,images/light_grey_box_with_target,images/light_grey_box,0,0.1,0.25,0,107,107,50,,,,,,,,,,,,,363.57417887006886,None,363.57417887006886,None,363.57417887006886,None,364.58842474606354,None,364.58842474606354,None,364.58842474606354,None,0.1,0.25,364.7625923859887,364.8905036340002,364.7625923859887,364.8905036340002,364.7625923859887,364.8905036340002,space,0.2811493140179664,364.7625923859887,None,365.05645995307714,None,,,7,001,2020_Apr_18_1839,experiment,2020.1.3,59.59007650651281,
images/light_grey_box_with_cue,images/light_grey_box,images/light_grey_box,images/light_grey_box,images/light_grey_box_with_target,images/light_grey_box,0,0.1,0.25,0,108,108,43,,,,,,,,,,,,,365.55750444403384,None,365.55750444403384,None,365.55750444403384,None,366.5726860460127,None,366.5726860460127,None,366.5726860460127,None,0.1,0.25,366.7474001890514,366.90742328600027,366.7474001890514,366.90742328600027,366.7474001890514,366.90742328600027,space,0.33226209494750947,366.7474001890514,None,367.0949720420176,None,,,7,001,2020_Apr_18_1839,experiment,2020.1.3,59.59007650651281,
images/light_grey_box_with_cue,images/light_grey_box,images/light_grey_box,images/light_grey_box,images/light_grey_box_with_target,images/light_grey_box,0,0.5,0.65,0,109,109,105,,,,,,,,,,,,,367.6090850670589,None,367.6090850670589,None,367.6090850670589,None,368.62310678500216,None,368.62310678500216,None,368.62310678500216,None,0.2,0.35,368.82432551006787,368.90785702108406,368.82432551006787,368.90785702108406,368.82432551006787,368.90785702108406,space,0.2537341279676184,368.82432551006787,None,369.0919611650752,None,,,7,001,2020_Apr_18_1839,experiment,2020.1.3,59.59007650651281,
images/light_grey_box_with_cue,images/light_grey_box,images/light_grey_box,images/light_grey_box,images/light_grey_box_with_target,images/light_grey_box,0,0.1,0.25,0,110,110,45,,,,,,,,,,,,,369.59132331307046,None,369.59132331307046,None,369.59132331307046,None,370.6062109069899,None,370.6062109069899,None,370.6062109069899,None,0.5,0.65,370.7719933890039,370.97404613904655,370.7719933890039,370.97404613904655,370.7719933890039,370.97404613904655,space,0.28875981201417744,370.7719933890039,None,371.07389707502443,None,,,7,001,2020_Apr_18_1839,experiment,2020.1.3,59.59007650651281,
images/light_grey_box,images/light_grey_box,images/light_grey_box,images/light_grey_box,images/light_grey_box_with_target,images/light_grey_box,0,0.1,0.25,0,111,111,56,,,,,,,,,,,,,371.5736604400445,None,371.5736604400445,None,371.5736604400445,None,372.58244669705164,None,372.58244669705164,None,372.58244669705164,None,0.2,0.35,372.790633421042,372.8905547989998,372.790633421042,372.8905547989998,372.790633421042,372.8905547989998,space,0.2709302499424666,372.790633421042,None,373.07533360808156,None,,,7,001,2020_Apr_18_1839,experiment,2020.1.3,59.59007650651281,
images/light_grey_box_with_cue,images/light_grey_box,images/light_grey_box,images/light_grey_box,images/light_grey_box_with_target,images/light_grey_box,0,0.5,0.65,0,112,112,100,,,,,,,,,,,,,373.5891797380755,None,373.5891797380755,None,373.5891797380755,None,374.6006923899986,None,374.6006923899986,None,374.6006923899986,None,0.2,0.35,374.7634767370764,374.9072482070187,374.7634767370764,374.9072482070187,374.7634767370764,374.9072482070187,space,0.2790431110188365,374.7634767370764,None,375.05554709606804,None,,,7,001,2020_Apr_18_1839,experiment,2020.1.3,59.59007650651281,
images/light_grey_box,images/light_grey_box,images/light_grey_box_with_cue,images/light_grey_box,images/light_grey_box_with_target,images/light_grey_box,0,0.0,0.15,0,113,113,15,,,,,,,,,,,,,375.5571357370354,None,375.5571357370354,None,375.5571357370354,None,376.57234781305306,None,376.57234781305306,None,376.57234781305306,None,0.5,0.65,376.7477670190856,376.8905048921006,376.7477670190856,376.8905048921006,376.7477670190856,376.8905048921006,space,0.2796100240666419,376.7477670190856,None,377.0402473520953,None,,,7,001,2020_Apr_18_1839,experiment,2020.1.3,59.59007650651281,
images/light_grey_box,images/light_grey_box,images/light_grey_box,images/light_grey_box,images/light_grey_box_with_target,images/light_grey_box,0,0.05,0.2,0,114,114,33,,,,,,,,,,,,,377.54065529606305,None,377.54065529606305,None,377.54065529606305,None,378.5502890290227,None,378.5502890290227,None,378.5502890290227,None,0.05,0.2,378.7319537110161,378.92400000302587,378.7319537110161,378.92400000302587,378.7319537110161,378.92400000302587,space,5.245799248921685,378.7319537110161,None,383.9904992580414,None,,,7,001,2020_Apr_18_1839,experiment,2020.1.3,59.59007650651281,
images/light_grey_box_with_cue,images/light_grey_box,images/light_grey_box,images/light_grey_box,images/light_grey_box,images/light_grey_box,0,0.0,0.15,0,115,115,9,,,,,,,,,,,,,384.49067173106596,None,384.49067173106596,None,384.49067173106596,None,385.5052728030132,None,385.5052728030132,None,385.5052728030132,None,0.0,0.15,385.7904414990917,385.80711757799145,385.7904414990917,385.80711757799145,385.7904414990917,385.80711757799145,space,2.450774400960654,385.7904414990917,None,388.25631568499375,None,,,7,001,2020_Apr_18_1839,experiment,2020.1.3,59.59007650651281,
images/light_grey_box_with_cue,images/light_grey_box,images/light_grey_box,images/light_grey_box,images/light_grey_box,images/light_grey_box_with_target,0,0.5,0.65,0,116,116,107,,,,,,,,,,,,,388.75714002898894,None,388.75714002898894,None,388.75714002898894,None,389.7721728000324,None,389.7721728000324,None,389.7721728000324,None,0.5,0.65,390.02308346901555,390.0903166750213,390.02308346901555,390.0903166750213,390.02308346901555,390.0903166750213,space,0.4041727849980816,390.02308346901555,None,390.4392738620518,None,,,7,001,2020_Apr_18_1839,experiment,2020.1.3,59.59007650651281,
images/light_grey_box,images/light_grey_box,images/light_grey_box_with_cue,images/light_grey_box,images/light_grey_box_with_target,images/light_grey_box,0,0.3,0.45,0,117,117,90,,,,,,,,,,,,,390.93956392700784,None,390.93956392700784,None,390.93956392700784,None,391.9550330300117,None,391.9550330300117,None,391.9550330300117,None,0.3,0.44999999999999996,392.20677396201063,392.3736025770195,392.20677396201063,392.3736025770195,392.20677396201063,392.3736025770195,space,0.17222702503204346,392.20677396201063,None,392.3911293640267,None,,,7,001,2020_Apr_18_1839,experiment,2020.1.3,59.59007650651281,
images/light_grey_box_with_cue,images/light_grey_box,images/light_grey_box,images/light_grey_box,images/light_grey_box_with_target,images/light_grey_box,0,0.1,0.25,0,118,118,40,,,,,,,,,,,,,392.8907278390834,None,392.8907278390834,None,392.8907278390834,None,393.9059920969885,None,393.9059920969885,None,393.9059920969885,None,0.2,0.35,394.1233177490067,394.2070393830072,394.1233177490067,394.2070393830072,394.1233177490067,394.2070393830072,space,0.2907979659503326,394.1233177490067,None,394.4307485090103,None,,,7,001,2020_Apr_18_1839,experiment,2020.1.3,59.59007650651281,
images/light_grey_box_with_cue,images/light_grey_box,images/light_grey_box,images/light_grey_box,images/light_grey_box,images/light_grey_box_with_target,0,0.05,0.2,0,119,119,27,,,,,,,,,,,,,394.9423743051011,None,394.9423743051011,None,394.9423743051011,None,395.95655631506816,None,395.95655631506816,None,395.95655631506816,None,0.3,0.44999999999999996,396.22424070804846,396.2574060980696,396.22424070804846,396.2574060980696,396.22424070804846,396.2574060980696,space,0.17170521698426455,396.22424070804846,None,396.408377240994,None,,,7,001,2020_Apr_18_1839,experiment,2020.1.3,59.59007650651281,
,,,,,,,,,,,,,,,,,,,,,,,,,,,,,,,,,,,,,,,,,,,,,,,,,,,396.9081401170697,None,,,,,,,
