image_cue_1,image_cue_2,image_cue_3,image_target_1,image_target_2,image_target_3,targetStart,startTime,endTime,trials.thisRepN,trials.thisTrialN,trials.thisN,trials.thisIndex,textWelcome.started,textWelcome.stopped,keyWelcome.keys,keyWelcome.rt,keyWelcome.started,keyWelcome.stopped,textStart.started,textStart.stopped,keyStart.keys,keyStart.rt,keyStart.started,keyStart.stopped,imageTrailBefore_1.started,imageTrailBefore_1.stopped,imageTrialBefore_2.started,imageTrialBefore_2.stopped,imageTrialBefore_3.started,imageTrialBefore_3.stopped,imageTrialCue_1.started,imageTrialCue_1.stopped,imageTrialCue_2.started,imageTrialCue_2.stopped,imageTrialCue_3.started,imageTrialCue_3.stopped,TrialSceenTargetStart,TrialSceenTargetEnd,imageTrialTarget_1.started,imageTrialTarget_1.stopped,imageTrialTarget_2.started,imageTrialTarget_2.stopped,imageTrialTarget_3.started,imageTrialTarget_3.stopped,keyResponse.keys,keyResponse.rt,keyResponse.started,keyResponse.stopped,textBlank500.started,textBlank500.stopped,participant,session,date,expName,psychopyVersion,frameRate,
,,,,,,,,,,,,,30.032913581000003,None,space,4.539898351000005,30.032913581000003,None,,,,,,,,,,,,,,,,,,,,,,,,,,,,,,,,,9,001,2020_Apr_18_1911,experiment,2020.1.3,584.0671163204329,
,,,,,,,,,,,,,,,,,,,34.57505735700002,None,space,2.0189089370000204,34.57505735700002,None,,,,,,,,,,,,,,,,,,,,,,,,,,,9,001,2020_Apr_18_1911,experiment,2020.1.3,584.0671163204329,
images/light_grey_box_with_cue,images/light_grey_box,images/light_grey_box,images/light_grey_box,images/light_grey_box,images/light_grey_box,0,0.0,0.15,0,0,0,8,,,,,,,,,,,,,36.72495118900002,None,36.72495118900002,None,36.72495118900002,None,37.640290424,None,37.640290424,None,37.640290424,None,0.0,0.15,37.801912918,37.93947873800002,37.801912918,37.93947873800002,37.801912918,37.93947873800002,space,1.4568408559999853,37.801912918,None,39.26124267600002,None,9,001,2020_Apr_18_1911,experiment,2020.1.3,584.0671163204329,
images/light_grey_box_with_cue,images/light_grey_box,images/light_grey_box,images/light_grey_box,images/light_grey_box,images/light_grey_box_with_target,0,0.0,0.15,0,1,1,7,,,,,,,,,,,,,39.76132931400002,None,39.76132931400002,None,39.76132931400002,None,40.79910150800001,None,40.79910150800001,None,40.79910150800001,None,0.3,0.44999999999999996,40.95500851100002,41.10890021,40.95500851100002,41.10890021,40.95500851100002,41.10890021,space,0.37851916200000346,40.95500851100002,None,41.335979228000014,None,9,001,2020_Apr_18_1911,experiment,2020.1.3,584.0671163204329,
images/light_grey_box_with_cue,images/light_grey_box,images/light_grey_box,images/light_grey_box,images/light_grey_box,images/light_grey_box,0,0.0,0.15,0,2,2,9,,,,,,,,,,,,,41.83726746300002,None,41.83726746300002,None,41.83726746300002,None,42.87415698200002,None,42.87415698200002,None,42.87415698200002,None,0.3,0.44999999999999996,43.029890768,43.19023961800002,43.029890768,43.19023961800002,43.029890768,43.19023961800002,space,1.4948708649999958,43.029890768,None,44.527198621,None,9,001,2020_Apr_18_1911,experiment,2020.1.3,584.0671163204329,
images/light_grey_box,images/light_grey_box,images/light_grey_box_with_cue,images/light_grey_box,images/light_grey_box_with_target,images/light_grey_box,0,0.3,0.45,0,3,3,90,,,,,,,,,,,,,45.026699627,None,45.026699627,None,45.026699627,None,46.077157481,None,46.077157481,None,46.077157481,None,0.3,0.44999999999999996,46.222611742,46.36174792900002,46.222611742,46.36174792900002,46.222611742,46.36174792900002,space,0.3270851279999931,46.222611742,None,46.55202449400002,None,9,001,2020_Apr_18_1911,experiment,2020.1.3,584.0671163204329,
images/light_grey_box,images/light_grey_box,images/light_grey_box,images/light_grey_box,images/light_grey_box_with_target,images/light_grey_box,0,0.05,0.2,0,4,4,34,,,,,,,,,,,,,47.05218262300002,None,47.05218262300002,None,47.05218262300002,None,48.08787863400002,None,48.08787863400002,None,48.08787863400002,None,0.3,0.44999999999999996,48.28342401100002,48.43377331300002,48.28342401100002,48.43377331300002,48.28342401100002,48.43377331300002,space,4.004206537000016,48.28342401100002,None,52.29009073900002,None,9,001,2020_Apr_18_1911,experiment,2020.1.3,584.0671163204329,
images/light_grey_box,images/light_grey_box,images/light_grey_box_with_cue,images/light_grey_box,images/light_grey_box_with_target,images/light_grey_box,0,0.5,0.65,0,5,5,111,,,,,,,,,,,,,52.79112873700001,None,52.79112873700001,None,52.79112873700001,None,53.828782933000014,None,53.828782933000014,None,53.828782933000014,None,0.2,0.35,53.984618599000015,54.133968353,53.984618599000015,54.133968353,53.984618599000015,54.133968353,space,1.605932574999997,53.984618599000015,None,55.592850852,None,9,001,2020_Apr_18_1911,experiment,2020.1.3,584.0671163204329,
images/light_grey_box_with_cue,images/light_grey_box,images/light_grey_box,images/light_grey_box,images/light_grey_box_with_target,images/light_grey_box,0,0.5,0.65,0,6,6,103,,,,,,,,,,,,,56.093021762000006,None,56.093021762000006,None,56.093021762000006,None,57.130346941,None,57.130346941,None,57.130346941,None,0.3,0.44999999999999996,57.28482734000002,57.43190246,57.28482734000002,57.43190246,57.28482734000002,57.43190246,space,0.7554184720000023,57.28482734000002,None,58.042189154,None,9,001,2020_Apr_18_1911,experiment,2020.1.3,584.0671163204329,
images/light_grey_box,images/light_grey_box,images/light_grey_box_with_cue,images/light_grey_box,images/light_grey_box_with_target,images/light_grey_box,0,0.5,0.65,0,7,7,112,,,,,,,,,,,,,58.54208381800001,None,58.54208381800001,None,58.54208381800001,None,59.580432970000004,None,59.580432970000004,None,59.580432970000004,None,0.5,0.65,59.740895764000015,59.89358649900001,59.740895764000015,59.89358649900001,59.740895764000015,59.89358649900001,space,0.31658529499998167,59.740895764000015,None,60.059361800000005,None,9,001,2020_Apr_18_1911,experiment,2020.1.3,584.0671163204329,
images/light_grey_box,images/light_grey_box,images/light_grey_box,images/light_grey_box,images/light_grey_box_with_target,images/light_grey_box,0,0.1,0.25,0,8,8,56,,,,,,,,,,,,,60.560181634,None,60.560181634,None,60.560181634,None,61.59536538100002,None,61.59536538100002,None,61.59536538100002,None,0.3,0.44999999999999996,61.762619685000004,61.90161505100002,61.762619685000004,61.90161505100002,61.762619685000004,61.90161505100002,space,0.25917551099999514,61.762619685000004,None,62.024132458,None,9,001,2020_Apr_18_1911,experiment,2020.1.3,584.0671163204329,
images/light_grey_box,images/light_grey_box,images/light_grey_box,images/light_grey_box,images/light_grey_box_with_target,images/light_grey_box,0,0.1,0.25,0,9,9,55,,,,,,,,,,,,,62.52529474300002,None,62.52529474300002,None,62.52529474300002,None,63.581435752000004,None,63.581435752000004,None,63.581435752000004,None,0.3,0.44999999999999996,63.72315591100002,63.86697652800001,63.72315591100002,63.86697652800001,63.72315591100002,63.86697652800001,space,0.2594545910000079,63.72315591100002,None,63.98495950900002,None,9,001,2020_Apr_18_1911,experiment,2020.1.3,584.0671163204329,
images/light_grey_box,images/light_grey_box,images/light_grey_box_with_cue,images/light_grey_box,images/light_grey_box,images/light_grey_box,0,0.3,0.45,0,10,10,99,,,,,,,,,,,,,64.48416078400001,None,64.48416078400001,None,64.48416078400001,None,65.52153632400001,None,65.52153632400001,None,65.52153632400001,None,0.05,0.2,65.700490543,65.851418349,65.700490543,65.851418349,65.700490543,65.851418349,space,26.075767041999967,65.700490543,None,91.77891616700003,None,9,001,2020_Apr_18_1911,experiment,2020.1.3,584.0671163204329,
images/light_grey_box_with_cue,images/light_grey_box,images/light_grey_box,images/light_grey_box_with_target,images/light_grey_box,images/light_grey_box,0,0.0,0.15,0,11,11,6,,,,,,,,,,,,,92.27829336400004,None,92.27829336400004,None,92.27829336400004,None,93.318910738,None,93.318910738,None,93.318910738,None,0.0,0.15,93.467197951,93.61356851099998,93.467197951,93.61356851099998,93.467197951,93.61356851099998,space,0.3012311179999756,93.467197951,None,93.77093575399999,None,9,001,2020_Apr_18_1911,experiment,2020.1.3,584.0671163204329,
images/light_grey_box,images/light_grey_box,images/light_grey_box,images/light_grey_box,images/light_grey_box_with_target,images/light_grey_box,0,0.05,0.2,0,12,12,33,,,,,,,,,,,,,94.270749566,None,94.270749566,None,94.270749566,None,95.30507245900003,None,95.30507245900003,None,95.30507245900003,None,0.5,0.65,95.469546815,95.61869862000003,95.469546815,95.61869862000003,95.469546815,95.61869862000003,space,0.2927278239999964,95.469546815,None,95.76448277899999,None,9,001,2020_Apr_18_1911,experiment,2020.1.3,584.0671163204329,
images/light_grey_box,images/light_grey_box,images/light_grey_box_with_cue,images/light_grey_box,images/light_grey_box,images/light_grey_box,0,0.3,0.45,0,13,13,98,,,,,,,,,,,,,96.264838655,None,96.264838655,None,96.264838655,None,97.30197558600003,None,97.30197558600003,None,97.30197558600003,None,0.2,0.35,97.452454182,97.60613964100003,97.452454182,97.60613964100003,97.452454182,97.60613964100003,space,1.1702629119999983,97.452454182,None,98.62507927000001,None,9,001,2020_Apr_18_1911,experiment,2020.1.3,584.0671163204329,
images/light_grey_box,images/light_grey_box,images/light_grey_box,images/light_grey_box,images/light_grey_box_with_target,images/light_grey_box,0,0.3,0.45,0,14,14,96,,,,,,,,,,,,,99.12437784899998,None,99.12437784899998,None,99.12437784899998,None,100.16195672500004,None,100.16195672500004,None,100.16195672500004,None,0.05,0.2,100.32582284,100.47302667500003,100.32582284,100.47302667500003,100.32582284,100.47302667500003,space,0.2693560669999897,100.32582284,None,100.59721866300004,None,9,001,2020_Apr_18_1911,experiment,2020.1.3,584.0671163204329,
images/light_grey_box_with_cue,images/light_grey_box,images/light_grey_box,images/light_grey_box_with_target,images/light_grey_box,images/light_grey_box,0,0.1,0.25,0,15,15,46,,,,,,,,,,,,,101.096413541,None,101.096413541,None,101.096413541,None,102.13469936199999,None,102.13469936199999,None,102.13469936199999,None,0.3,0.44999999999999996,102.29061650200003,102.43469547500001,102.29061650200003,102.43469547500001,102.29061650200003,102.43469547500001,space,0.21930712500000027,102.29061650200003,None,102.51224358000002,None,9,001,2020_Apr_18_1911,experiment,2020.1.3,584.0671163204329,
images/light_grey_box_with_cue,images/light_grey_box,images/light_grey_box,images/light_grey_box,images/light_grey_box_with_target,images/light_grey_box,0,0.2,0.35,0,16,16,60,,,,,,,,,,,,,103.01415133500001,None,103.01415133500001,None,103.01415133500001,None,104.04943757400002,None,104.04943757400002,None,104.04943757400002,None,0.5,0.65,104.20110046900004,104.359246079,104.20110046900004,104.359246079,104.20110046900004,104.359246079,space,0.26515701400001035,104.20110046900004,None,104.46865868100002,None,9,001,2020_Apr_18_1911,experiment,2020.1.3,584.0671163204329,
images/light_grey_box_with_cue,images/light_grey_box,images/light_grey_box,images/light_grey_box,images/light_grey_box_with_target,images/light_grey_box,0,0.0,0.15,0,17,17,2,,,,,,,,,,,,,104.96843260700001,None,104.96843260700001,None,104.96843260700001,None,106.00669702100004,None,106.00669702100004,None,106.00669702100004,None,0.5,0.65,106.16233322900001,106.31543384700001,106.16233322900001,106.31543384700001,106.16233322900001,106.31543384700001,space,0.22839069100001552,106.16233322900001,None,106.39315201700003,None,9,001,2020_Apr_18_1911,experiment,2020.1.3,584.0671163204329,
images/light_grey_box_with_cue,images/light_grey_box,images/light_grey_box,images/light_grey_box,images/light_grey_box,images/light_grey_box,0,0.2,0.35,0,18,18,68,,,,,,,,,,,,,106.89208760899999,None,106.89208760899999,None,106.89208760899999,None,107.92808533300001,None,107.92808533300001,None,107.92808533300001,None,0.1,0.25,108.08310120600004,108.22582858499999,108.08310120600004,108.22582858499999,108.08310120600004,108.22582858499999,space,0.3232330619999857,108.08310120600004,None,108.408346386,None,9,001,2020_Apr_18_1911,experiment,2020.1.3,584.0671163204329,
images/light_grey_box,images/light_grey_box,images/light_grey_box,images/light_grey_box,images/light_grey_box_with_target,images/light_grey_box,0,0.2,0.35,0,19,19,73,,,,,,,,,,,,,108.90940379,None,108.90940379,None,108.90940379,None,109.94487213600001,None,109.94487213600001,None,109.94487213600001,None,0.5,0.65,110.10823145800003,110.244578278,110.10823145800003,110.244578278,110.10823145800003,110.244578278,space,0.3433764319999568,110.10823145800003,None,110.454313378,None,9,001,2020_Apr_18_1911,experiment,2020.1.3,584.0671163204329,
images/light_grey_box,images/light_grey_box,images/light_grey_box,images/light_grey_box,images/light_grey_box_with_target,images/light_grey_box,0,0.2,0.35,0,20,20,75,,,,,,,,,,,,,110.95425645200004,None,110.95425645200004,None,110.95425645200004,None,111.98801258399999,None,111.98801258399999,None,111.98801258399999,None,0.5,0.65,112.15467186500001,112.29055956299999,112.15467186500001,112.29055956299999,112.15467186500001,112.29055956299999,space,0.5276114030000372,112.15467186500001,None,112.684612362,None,9,001,2020_Apr_18_1911,experiment,2020.1.3,584.0671163204329,
images/light_grey_box_with_cue,images/light_grey_box,images/light_grey_box,images/light_grey_box_with_target,images/light_grey_box,images/light_grey_box,0,0.5,0.65,0,21,21,106,,,,,,,,,,,,,113.18442848699999,None,113.18442848699999,None,113.18442848699999,None,114.222233486,None,114.222233486,None,114.222233486,None,0.05,0.2,114.37744765100001,114.52559613599999,114.37744765100001,114.52559613599999,114.37744765100001,114.52559613599999,space,0.3420158870000023,114.37744765100001,None,114.721932912,None,9,001,2020_Apr_18_1911,experiment,2020.1.3,584.0671163204329,
images/light_grey_box_with_cue,images/light_grey_box,images/light_grey_box,images/light_grey_box,images/light_grey_box_with_target,images/light_grey_box,0,0.0,0.15,0,22,22,3,,,,,,,,,,,,,115.22137649900003,None,115.22137649900003,None,115.22137649900003,None,116.25828801900002,None,116.25828801900002,None,116.25828801900002,None,0.3,0.44999999999999996,116.42826771200004,116.56285030600003,116.42826771200004,116.56285030600003,116.42826771200004,116.56285030600003,space,0.2509585000000243,116.42826771200004,None,116.681692656,None,9,001,2020_Apr_18_1911,experiment,2020.1.3,584.0671163204329,
images/light_grey_box_with_cue,images/light_grey_box,images/light_grey_box,images/light_grey_box,images/light_grey_box,images/light_grey_box_with_target,0,0.05,0.2,0,23,23,27,,,,,,,,,,,,,117.18159385000001,None,117.18159385000001,None,117.18159385000001,None,118.22011252200002,None,118.22011252200002,None,118.22011252200002,None,0.1,0.25,118.372561641,118.520899644,118.372561641,118.520899644,118.372561641,118.520899644,space,0.30071139800003266,118.372561641,None,118.67555699600001,None,9,001,2020_Apr_18_1911,experiment,2020.1.3,584.0671163204329,
images/light_grey_box,images/light_grey_box,images/light_grey_box_with_cue,images/light_grey_box,images/light_grey_box,images/light_grey_box_with_target,0,0.05,0.2,0,24,24,37,,,,,,,,,,,,,119.17645902800001,None,119.17645902800001,None,119.17645902800001,None,120.213640913,None,120.213640913,None,120.213640913,None,0.05,0.2,120.376672257,120.52423658700002,120.376672257,120.52423658700002,120.376672257,120.52423658700002,space,0.2261005810000256,120.376672257,None,120.60524157000003,None,9,001,2020_Apr_18_1911,experiment,2020.1.3,584.0671163204329,
images/light_grey_box,images/light_grey_box,images/light_grey_box_with_cue,images/light_grey_box,images/light_grey_box,images/light_grey_box,0,0.2,0.35,0,25,25,79,,,,,,,,,,,,,121.10559226700002,None,121.10559226700002,None,121.10559226700002,None,122.144084066,None,122.144084066,None,122.144084066,None,0.3,0.44999999999999996,122.309204652,122.45017254700002,122.309204652,122.45017254700002,122.309204652,122.45017254700002,space,0.2392601870000135,122.309204652,None,122.550765893,None,9,001,2020_Apr_18_1911,experiment,2020.1.3,584.0671163204329,
images/light_grey_box,images/light_grey_box,images/light_grey_box_with_cue,images/light_grey_box,images/light_grey_box_with_target,images/light_grey_box,0,0.0,0.15,0,26,26,11,,,,,,,,,,,,,123.05135167100002,None,123.05135167100002,None,123.05135167100002,None,124.08825631299999,None,124.08825631299999,None,124.08825631299999,None,0.3,0.44999999999999996,124.251247106,124.40620137500002,124.251247106,124.40620137500002,124.251247106,124.40620137500002,space,0.2817945420000001,124.251247106,None,124.535824515,None,9,001,2020_Apr_18_1911,experiment,2020.1.3,584.0671163204329,
images/light_grey_box,images/light_grey_box,images/light_grey_box_with_cue,images/light_grey_box,images/light_grey_box,images/light_grey_box,0,0.05,0.2,0,27,27,39,,,,,,,,,,,,,125.03531306899998,None,125.03531306899998,None,125.03531306899998,None,126.07165539900001,None,126.07165539900001,None,126.07165539900001,None,0.1,0.25,126.24047386300003,126.37969477799999,126.24047386300003,126.37969477799999,126.24047386300003,126.37969477799999,space,1.1614348840000162,126.24047386300003,None,127.40422760900003,None,9,001,2020_Apr_18_1911,experiment,2020.1.3,584.0671163204329,
images/light_grey_box_with_cue,images/light_grey_box,images/light_grey_box,images/light_grey_box,images/light_grey_box_with_target,images/light_grey_box,0,0.5,0.65,0,28,28,101,,,,,,,,,,,,,127.90405538200002,None,127.90405538200002,None,127.90405538200002,None,128.94038936600003,None,128.94038936600003,None,128.94038936600003,None,0.1,0.25,129.09651566500003,129.244602116,129.09651566500003,129.244602116,129.09651566500003,129.244602116,space,0.30956702100002076,129.09651566500003,None,129.40857012000004,None,9,001,2020_Apr_18_1911,experiment,2020.1.3,584.0671163204329,
images/light_grey_box,images/light_grey_box,images/light_grey_box,images/light_grey_box,images/light_grey_box_with_target,images/light_grey_box,0,0.5,0.65,0,29,29,113,,,,,,,,,,,,,129.90839260400003,None,129.90839260400003,None,129.90839260400003,None,130.95997364,None,130.95997364,None,130.95997364,None,0.3,0.44999999999999996,131.12967861600004,131.26102719700003,131.12967861600004,131.26102719700003,131.12967861600004,131.26102719700003,space,0.26197725099996205,131.12967861600004,None,131.39404168600004,None,9,001,2020_Apr_18_1911,experiment,2020.1.3,584.0671163204329,
images/light_grey_box_with_cue,images/light_grey_box,images/light_grey_box,images/light_grey_box,images/light_grey_box,images/light_grey_box_with_target,0,0.5,0.65,0,30,30,107,,,,,,,,,,,,,131.895302904,None,131.895302904,None,131.895302904,None,132.93338396900003,None,132.93338396900003,None,132.93338396900003,None,0.1,0.25,133.085191693,133.25761137400002,133.085191693,133.25761137400002,133.085191693,133.25761137400002,space,0.2792764170000055,133.085191693,None,133.36693385,None,9,001,2020_Apr_18_1911,experiment,2020.1.3,584.0671163204329,
images/light_grey_box,images/light_grey_box,images/light_grey_box_with_cue,images/light_grey_box,images/light_grey_box_with_target,images/light_grey_box,0,0.0,0.15,0,31,31,15,,,,,,,,,,,,,133.867324892,None,133.867324892,None,133.867324892,None,134.905046148,None,134.905046148,None,134.905046148,None,0.05,0.2,135.057578959,135.202602038,135.057578959,135.202602038,135.057578959,135.202602038,space,0.1586845509999648,135.057578959,None,135.21876492799998,None,9,001,2020_Apr_18_1911,experiment,2020.1.3,584.0671163204329,
images/light_grey_box,images/light_grey_box,images/light_grey_box_with_cue,images/light_grey_box,images/light_grey_box,images/light_grey_box_with_target,0,0.2,0.35,0,32,32,77,,,,,,,,,,,,,135.71837823600004,None,135.71837823600004,None,135.71837823600004,None,136.75561424300002,None,136.75561424300002,None,136.75561424300002,None,0.3,0.44999999999999996,136.93135677200002,137.05808162,136.93135677200002,137.05808162,136.93135677200002,137.05808162,space,0.3717674769999917,136.93135677200002,None,137.30550007700003,None,9,001,2020_Apr_18_1911,experiment,2020.1.3,584.0671163204329,
images/light_grey_box_with_cue,images/light_grey_box,images/light_grey_box,images/light_grey_box,images/light_grey_box_with_target,images/light_grey_box,0,0.2,0.35,0,33,33,63,,,,,,,,,,,,,137.80536601400001,None,137.80536601400001,None,137.80536601400001,None,138.84324028700001,None,138.84324028700001,None,138.84324028700001,None,0.3,0.44999999999999996,138.99935172300002,139.14392130700003,138.99935172300002,139.14392130700003,138.99935172300002,139.14392130700003,space,0.17618217200003983,138.99935172300002,None,139.178058212,None,9,001,2020_Apr_18_1911,experiment,2020.1.3,584.0671163204329,
images/light_grey_box_with_cue,images/light_grey_box,images/light_grey_box,images/light_grey_box,images/light_grey_box_with_target,images/light_grey_box,0,0.0,0.15,0,34,34,4,,,,,,,,,,,,,139.67784364200003,None,139.67784364200003,None,139.67784364200003,None,140.71772728000002,None,140.71772728000002,None,140.71772728000002,None,0.2,0.35,140.876062326,141.02012275600003,140.876062326,141.02012275600003,140.876062326,141.02012275600003,space,0.22189241500001344,140.876062326,None,141.10069322100003,None,9,001,2020_Apr_18_1911,experiment,2020.1.3,584.0671163204329,
images/light_grey_box,images/light_grey_box,images/light_grey_box_with_cue,images/light_grey_box,images/light_grey_box,images/light_grey_box_with_target,0,0.1,0.25,0,35,35,57,,,,,,,,,,,,,141.59976241700002,None,141.59976241700002,None,141.59976241700002,None,142.638155842,None,142.638155842,None,142.638155842,None,0.2,0.35,142.791402688,None,142.791402688,None,142.791402688,None,space,0.1292884619999768,142.791402688,None,142.92348216599999,None,9,001,2020_Apr_18_1911,experiment,2020.1.3,584.0671163204329,
images/light_grey_box,images/light_grey_box,images/light_grey_box_with_cue,images/light_grey_box,images/light_grey_box,images/light_grey_box,0,0.0,0.15,0,36,36,19,,,,,,,,,,,,,143.42270589500004,None,143.42270589500004,None,143.42270589500004,None,144.46310545,None,144.46310545,None,144.46310545,None,0.0,0.15,144.61484289999999,144.759532907,144.61484289999999,144.759532907,144.61484289999999,144.759532907,space,0.382068543999992,144.61484289999999,None,144.999328112,None,9,001,2020_Apr_18_1911,experiment,2020.1.3,584.0671163204329,
images/light_grey_box_with_cue,images/light_grey_box,images/light_grey_box,images/light_grey_box,images/light_grey_box_with_target,images/light_grey_box,0,0.3,0.45,0,37,37,84,,,,,,,,,,,,,145.499635473,None,145.499635473,None,145.499635473,None,146.537587663,None,146.537587663,None,146.537587663,None,0.3,0.44999999999999996,146.688876134,146.85029270900003,146.688876134,146.85029270900003,146.688876134,146.85029270900003,space,0.1950827069999832,146.688876134,None,146.88636668600003,None,9,001,2020_Apr_18_1911,experiment,2020.1.3,584.0671163204329,
images/light_grey_box_with_cue,images/light_grey_box,images/light_grey_box,images/light_grey_box_with_target,images/light_grey_box,images/light_grey_box,0,0.3,0.45,0,38,38,86,,,,,,,,,,,,,147.385709178,None,147.385709178,None,147.385709178,None,148.423378495,None,148.423378495,None,148.423378495,None,0.05,0.2,148.59423931000003,148.73138815800002,148.59423931000003,148.73138815800002,148.59423931000003,148.73138815800002,space,0.35016894799997544,148.59423931000003,None,148.94678102200004,None,9,001,2020_Apr_18_1911,experiment,2020.1.3,584.0671163204329,
images/light_grey_box_with_cue,images/light_grey_box,images/light_grey_box,images/light_grey_box,images/light_grey_box,images/light_grey_box,0,0.1,0.25,0,39,39,49,,,,,,,,,,,,,149.44744459600003,None,149.44744459600003,None,149.44744459600003,None,150.48632494000003,None,150.48632494000003,None,150.48632494000003,None,0.1,0.25,150.677228726,150.80267968200002,150.677228726,150.80267968200002,150.677228726,150.80267968200002,space,0.3881902640000021,150.677228726,None,151.067956295,None,9,001,2020_Apr_18_1911,experiment,2020.1.3,584.0671163204329,
images/light_grey_box_with_cue,images/light_grey_box,images/light_grey_box,images/light_grey_box,images/light_grey_box_with_target,images/light_grey_box,0,0.5,0.65,0,40,40,100,,,,,,,,,,,,,151.567388671,None,151.567388671,None,151.567388671,None,152.604707276,None,152.604707276,None,152.604707276,None,0.2,0.35,152.758898263,None,152.758898263,None,152.758898263,None,space,0.08863027899997178,152.758898263,None,152.849842529,None,9,001,2020_Apr_18_1911,experiment,2020.1.3,584.0671163204329,
images/light_grey_box,images/light_grey_box,images/light_grey_box_with_cue,images/light_grey_box,images/light_grey_box_with_target,images/light_grey_box,0,0.0,0.15,0,41,41,10,,,,,,,,,,,,,153.350542592,None,153.350542592,None,153.350542592,None,154.39018287599998,None,154.39018287599998,None,154.39018287599998,None,0.3,0.44999999999999996,154.53812596300003,154.68821019300003,154.53812596300003,154.68821019300003,154.53812596300003,154.68821019300003,space,0.2361690329999533,154.53812596300003,None,154.776771526,None,9,001,2020_Apr_18_1911,experiment,2020.1.3,584.0671163204329,
images/light_grey_box_with_cue,images/light_grey_box,images/light_grey_box,images/light_grey_box_with_target,images/light_grey_box,images/light_grey_box,0,0.05,0.2,0,42,42,26,,,,,,,,,,,,,155.27699009399998,None,155.27699009399998,None,155.27699009399998,None,156.314016272,None,156.314016272,None,156.314016272,None,0.0,0.15,156.466422378,156.627378164,156.466422378,156.627378164,156.466422378,156.627378164,space,0.254954070999986,156.466422378,None,156.72384772100003,None,9,001,2020_Apr_18_1911,experiment,2020.1.3,584.0671163204329,
images/light_grey_box_with_cue,images/light_grey_box,images/light_grey_box,images/light_grey_box,images/light_grey_box,images/light_grey_box,0,0.3,0.45,0,43,43,88,,,,,,,,,,,,,157.225060433,None,157.225060433,None,157.225060433,None,158.262273563,None,158.262273563,None,158.262273563,None,0.2,0.35,158.41270686400003,158.563242623,158.41270686400003,158.563242623,158.41270686400003,158.563242623,space,0.7405597659999898,158.41270686400003,None,159.15558062400004,None,9,001,2020_Apr_18_1911,experiment,2020.1.3,584.0671163204329,
images/light_grey_box,images/light_grey_box,images/light_grey_box,images/light_grey_box,images/light_grey_box_with_target,images/light_grey_box,0,0.1,0.25,0,44,44,54,,,,,,,,,,,,,159.65581607299998,None,159.65581607299998,None,159.65581607299998,None,160.69424046900002,None,160.69424046900002,None,160.69424046900002,None,0.5,0.65,160.85840233300002,160.994993299,160.85840233300002,160.994993299,160.85840233300002,160.994993299,space,0.2607088430000317,160.85840233300002,None,161.121902374,None,9,001,2020_Apr_18_1911,experiment,2020.1.3,584.0671163204329,
images/light_grey_box_with_cue,images/light_grey_box,images/light_grey_box,images/light_grey_box,images/light_grey_box_with_target,images/light_grey_box,0,0.3,0.45,0,45,45,82,,,,,,,,,,,,,161.622310663,None,161.622310663,None,161.622310663,None,162.662197203,None,162.662197203,None,162.662197203,None,0.1,0.25,162.823659062,162.971635871,162.823659062,162.971635871,162.823659062,162.971635871,space,0.24757701799995857,162.823659062,None,163.07366729400002,None,9,001,2020_Apr_18_1911,experiment,2020.1.3,584.0671163204329,
images/light_grey_box,images/light_grey_box,images/light_grey_box_with_cue,images/light_grey_box,images/light_grey_box_with_target,images/light_grey_box,0,0.1,0.25,0,46,46,50,,,,,,,,,,,,,163.574234301,None,163.574234301,None,163.574234301,None,164.61226721600002,None,164.61226721600002,None,164.61226721600002,None,0.5,0.65,164.788036459,None,164.788036459,None,164.788036459,None,space,0.07075452499998391,164.788036459,None,164.86117927200002,None,9,001,2020_Apr_18_1911,experiment,2020.1.3,584.0671163204329,
images/light_grey_box,images/light_grey_box,images/light_grey_box,images/light_grey_box,images/light_grey_box_with_target,images/light_grey_box,0,0.5,0.65,0,47,47,115,,,,,,,,,,,,,165.361979065,None,165.361979065,None,165.361979065,None,166.400052802,None,166.400052802,None,166.400052802,None,0.5,0.65,166.55922525800003,166.70456228,166.55922525800003,166.70456228,166.55922525800003,166.70456228,space,0.20089648900000157,166.55922525800003,None,166.762577094,None,9,001,2020_Apr_18_1911,experiment,2020.1.3,584.0671163204329,
images/light_grey_box_with_cue,images/light_grey_box,images/light_grey_box,images/light_grey_box,images/light_grey_box_with_target,images/light_grey_box,0,0.5,0.65,0,48,48,104,,,,,,,,,,,,,167.261822221,None,167.261822221,None,167.261822221,None,168.300983905,None,168.300983905,None,168.300983905,None,0.2,0.35,168.459950279,None,168.459950279,None,168.459950279,None,space,0.0727860670000382,168.459950279,None,168.53508901499998,None,9,001,2020_Apr_18_1911,experiment,2020.1.3,584.0671163204329,
images/light_grey_box,images/light_grey_box,images/light_grey_box_with_cue,images/light_grey_box,images/light_grey_box,images/light_grey_box_with_target,0,0.3,0.45,0,49,49,97,,,,,,,,,,,,,169.03442503000002,None,169.03442503000002,None,169.03442503000002,None,170.072399523,None,170.072399523,None,170.072399523,None,0.5,0.65,170.223470126,None,170.223470126,None,170.223470126,None,space,0.07760546600002272,170.223470126,None,170.303573192,None,9,001,2020_Apr_18_1911,experiment,2020.1.3,584.0671163204329,
images/light_grey_box,images/light_grey_box,images/light_grey_box_with_cue,images/light_grey_box,images/light_grey_box_with_target,images/light_grey_box,0,0.3,0.45,0,50,50,91,,,,,,,,,,,,,170.80433553900002,None,170.80433553900002,None,170.80433553900002,None,171.84318376800002,None,171.84318376800002,None,171.84318376800002,None,0.5,0.65,171.995199201,None,171.995199201,None,171.995199201,None,space,0.09763851200000317,171.995199201,None,172.095280553,None,9,001,2020_Apr_18_1911,experiment,2020.1.3,584.0671163204329,
images/light_grey_box_with_cue,images/light_grey_box,images/light_grey_box,images/light_grey_box,images/light_grey_box_with_target,images/light_grey_box,0,0.05,0.2,0,51,51,20,,,,,,,,,,,,,172.594751416,None,172.594751416,None,172.594751416,None,173.63776515,None,173.63776515,None,173.63776515,None,0.3,0.44999999999999996,173.792624584,173.95008997899998,173.792624584,173.95008997899998,173.792624584,173.95008997899998,space,2.7337460429999965,173.792624584,None,176.52866750700002,None,9,001,2020_Apr_18_1911,experiment,2020.1.3,584.0671163204329,
images/light_grey_box_with_cue,images/light_grey_box,images/light_grey_box,images/light_grey_box_with_target,images/light_grey_box,images/light_grey_box,0,0.2,0.35,0,52,52,66,,,,,,,,,,,,,177.02771938400002,None,177.02771938400002,None,177.02771938400002,None,178.06455861300003,None,178.06455861300003,None,178.06455861300003,None,0.05,0.2,178.218783836,178.366103779,178.218783836,178.366103779,178.218783836,178.366103779,space,0.16925846299994873,178.218783836,None,178.39069799100002,None,9,001,2020_Apr_18_1911,experiment,2020.1.3,584.0671163204329,
images/light_grey_box_with_cue,images/light_grey_box,images/light_grey_box,images/light_grey_box,images/light_grey_box_with_target,images/light_grey_box,0,0.3,0.45,0,53,53,80,,,,,,,,,,,,,178.89017204499999,None,178.89017204499999,None,178.89017204499999,None,179.928964824,None,179.928964824,None,179.928964824,None,0.1,0.25,180.079931611,180.23326862700003,180.079931611,180.23326862700003,180.079931611,180.23326862700003,space,0.1600148510000281,180.079931611,None,180.24239229200003,None,9,001,2020_Apr_18_1911,experiment,2020.1.3,584.0671163204329,
images/light_grey_box_with_cue,images/light_grey_box,images/light_grey_box,images/light_grey_box,images/light_grey_box_with_target,images/light_grey_box,0,0.0,0.15,0,54,54,5,,,,,,,,,,,,,180.742134664,None,180.742134664,None,180.742134664,None,181.77969319100004,None,181.77969319100004,None,181.77969319100004,None,0.0,0.15,181.94118473600003,182.08310142,181.94118473600003,182.08310142,181.94118473600003,182.08310142,space,0.1961797470000306,181.94118473600003,None,182.139728478,None,9,001,2020_Apr_18_1911,experiment,2020.1.3,584.0671163204329,
images/light_grey_box,images/light_grey_box,images/light_grey_box_with_cue,images/light_grey_box,images/light_grey_box_with_target,images/light_grey_box,0,0.5,0.65,0,55,55,110,,,,,,,,,,,,,182.63853660300003,None,182.63853660300003,None,182.63853660300003,None,183.676087795,None,183.676087795,None,183.676087795,None,0.0,0.15,183.836434241,183.99455488900003,183.836434241,183.99455488900003,183.836434241,183.99455488900003,space,2.14840765699995,183.836434241,None,185.98721868799998,None,9,001,2020_Apr_18_1911,experiment,2020.1.3,584.0671163204329,
images/light_grey_box_with_cue,images/light_grey_box,images/light_grey_box,images/light_grey_box,images/light_grey_box_with_target,images/light_grey_box,0,0.5,0.65,0,56,56,105,,,,,,,,,,,,,186.48757835499998,None,186.48757835499998,None,186.48757835499998,None,187.52763784500002,None,187.52763784500002,None,187.52763784500002,None,0.1,0.25,187.677256259,None,187.677256259,None,187.677256259,None,space,0.15434951899999305,187.677256259,None,187.834039615,None,9,001,2020_Apr_18_1911,experiment,2020.1.3,584.0671163204329,
images/light_grey_box,images/light_grey_box,images/light_grey_box_with_cue,images/light_grey_box,images/light_grey_box_with_target,images/light_grey_box,0,0.2,0.35,0,57,57,71,,,,,,,,,,,,,188.33452976400002,None,188.33452976400002,None,188.33452976400002,None,189.375135876,None,189.375135876,None,189.375135876,None,0.0,0.15,189.524800002,None,189.524800002,None,189.524800002,None,space,0.1039264430000344,189.524800002,None,189.63113907000002,None,9,001,2020_Apr_18_1911,experiment,2020.1.3,584.0671163204329,
images/light_grey_box,images/light_grey_box,images/light_grey_box,images/light_grey_box,images/light_grey_box_with_target,images/light_grey_box,0,0.5,0.65,0,58,58,116,,,,,,,,,,,,,190.130609224,None,190.130609224,None,190.130609224,None,191.167976952,None,191.167976952,None,191.167976952,None,0.5,0.65,191.32503954500004,191.491715037,191.32503954500004,191.491715037,191.32503954500004,191.491715037,space,0.24045359600000893,191.32503954500004,None,191.56795825900002,None,9,001,2020_Apr_18_1911,experiment,2020.1.3,584.0671163204329,
images/light_grey_box_with_cue,images/light_grey_box,images/light_grey_box,images/light_grey_box,images/light_grey_box_with_target,images/light_grey_box,0,0.2,0.35,0,59,59,64,,,,,,,,,,,,,192.067915867,None,192.067915867,None,192.067915867,None,193.10689333800002,None,193.10689333800002,None,193.10689333800002,None,0.3,0.44999999999999996,193.26674345200001,None,193.26674345200001,None,193.26674345200001,None,space,0.15619057800000746,193.26674345200001,None,193.425277565,None,9,001,2020_Apr_18_1911,experiment,2020.1.3,584.0671163204329,
images/light_grey_box_with_cue,images/light_grey_box,images/light_grey_box,images/light_grey_box,images/light_grey_box_with_target,images/light_grey_box,0,0.5,0.65,0,60,60,102,,,,,,,,,,,,,193.925236922,None,193.925236922,None,193.925236922,None,194.965183098,None,194.965183098,None,194.965183098,None,0.0,0.15,195.12116478400003,195.281049515,195.12116478400003,195.281049515,195.12116478400003,195.281049515,space,0.19167838999999276,195.12116478400003,None,195.315158881,None,9,001,2020_Apr_18_1911,experiment,2020.1.3,584.0671163204329,
images/light_grey_box_with_cue,images/light_grey_box,images/light_grey_box,images/light_grey_box,images/light_grey_box_with_target,images/light_grey_box,0,0.05,0.2,0,61,61,23,,,,,,,,,,,,,195.81530467100004,None,195.81530467100004,None,195.81530467100004,None,196.857224148,None,196.857224148,None,196.857224148,None,0.1,0.25,197.01216922999998,197.15426376200003,197.01216922999998,197.15426376200003,197.01216922999998,197.15426376200003,space,0.15269520399999692,197.01216922999998,None,197.167395607,None,9,001,2020_Apr_18_1911,experiment,2020.1.3,584.0671163204329,
images/light_grey_box,images/light_grey_box,images/light_grey_box,images/light_grey_box,images/light_grey_box_with_target,images/light_grey_box,0,0.2,0.35,0,62,62,74,,,,,,,,,,,,,197.667179029,None,197.667179029,None,197.667179029,None,198.707060269,None,198.707060269,None,198.707060269,None,0.5,0.65,198.85729265600003,199.00729636200003,198.85729265600003,199.00729636200003,198.85729265600003,199.00729636200003,space,2.2327855390000195,198.85729265600003,None,201.092581681,None,9,001,2020_Apr_18_1911,experiment,2020.1.3,584.0671163204329,
images/light_grey_box_with_cue,images/light_grey_box,images/light_grey_box,images/light_grey_box,images/light_grey_box_with_target,images/light_grey_box,0,0.1,0.25,0,63,63,40,,,,,,,,,,,,,201.59297944500003,None,201.59297944500003,None,201.59297944500003,None,202.633182417,None,202.633182417,None,202.633182417,None,0.3,0.44999999999999996,202.78803906400003,202.93408386,202.78803906400003,202.93408386,202.78803906400003,202.93408386,space,0.19003841299996793,202.78803906400003,None,202.98051887600002,None,9,001,2020_Apr_18_1911,experiment,2020.1.3,584.0671163204329,
images/light_grey_box,images/light_grey_box,images/light_grey_box_with_cue,images/light_grey_box,images/light_grey_box_with_target,images/light_grey_box,0,0.1,0.25,0,64,64,52,,,,,,,,,,,,,203.481575088,None,203.481575088,None,203.481575088,None,204.52022722600003,None,204.52022722600003,None,204.52022722600003,None,0.5,0.65,204.67192847,204.815196678,204.67192847,204.815196678,204.67192847,204.815196678,space,0.19061876500001063,204.67192847,None,204.864457684,None,9,001,2020_Apr_18_1911,experiment,2020.1.3,584.0671163204329,
images/light_grey_box_with_cue,images/light_grey_box,images/light_grey_box,images/light_grey_box,images/light_grey_box_with_target,images/light_grey_box,0,0.2,0.35,0,65,65,62,,,,,,,,,,,,,205.36547218600003,None,205.36547218600003,None,205.36547218600003,None,206.40595847000003,None,206.40595847000003,None,206.40595847000003,None,0.05,0.2,206.561527549,206.70672480900004,206.561527549,206.70672480900004,206.561527549,206.70672480900004,space,0.1854809939999882,206.561527549,None,206.749422938,None,9,001,2020_Apr_18_1911,experiment,2020.1.3,584.0671163204329,
images/light_grey_box_with_cue,images/light_grey_box,images/light_grey_box,images/light_grey_box,images/light_grey_box,images/light_grey_box_with_target,0,0.3,0.45,0,66,66,87,,,,,,,,,,,,,207.25007113100003,None,207.25007113100003,None,207.25007113100003,None,208.28853045800003,None,208.28853045800003,None,208.28853045800003,None,0.1,0.25,208.44160195900002,208.58843701800004,208.44160195900002,208.58843701800004,208.44160195900002,208.58843701800004,space,0.20719269799997164,208.44160195900002,None,208.651286708,None,9,001,2020_Apr_18_1911,experiment,2020.1.3,584.0671163204329,
images/light_grey_box,images/light_grey_box,images/light_grey_box_with_cue,images/light_grey_box,images/light_grey_box,images/light_grey_box,0,0.05,0.2,0,67,67,38,,,,,,,,,,,,,209.152854822,None,209.152854822,None,209.152854822,None,210.18970952,None,210.18970952,None,210.18970952,None,0.0,0.15,210.340253753,None,210.340253753,None,210.340253753,None,space,0.12495589900004234,210.340253753,None,210.46709531300002,None,9,001,2020_Apr_18_1911,experiment,2020.1.3,584.0671163204329,
images/light_grey_box_with_cue,images/light_grey_box,images/light_grey_box,images/light_grey_box,images/light_grey_box_with_target,images/light_grey_box,0,0.2,0.35,0,68,68,65,,,,,,,,,,,,,210.96629917799999,None,210.96629917799999,None,210.96629917799999,None,212.00443394799998,None,212.00443394799998,None,212.00443394799998,None,0.05,0.2,212.15979913400002,212.30505898900003,212.15979913400002,212.30505898900003,212.15979913400002,212.30505898900003,space,0.15357927900004142,212.15979913400002,None,212.31585169100003,None,9,001,2020_Apr_18_1911,experiment,2020.1.3,584.0671163204329,
images/light_grey_box_with_cue,images/light_grey_box,images/light_grey_box,images/light_grey_box,images/light_grey_box_with_target,images/light_grey_box,0,0.1,0.25,0,69,69,42,,,,,,,,,,,,,212.816815905,None,212.816815905,None,212.816815905,None,213.854169168,None,213.854169168,None,213.854169168,None,0.3,0.44999999999999996,214.00689476500003,214.15299492000003,214.00689476500003,214.15299492000003,214.00689476500003,214.15299492000003,space,0.1944552749999957,214.00689476500003,None,214.20382091599998,None,9,001,2020_Apr_18_1911,experiment,2020.1.3,584.0671163204329,
images/light_grey_box,images/light_grey_box,images/light_grey_box,images/light_grey_box,images/light_grey_box_with_target,images/light_grey_box,0,0.05,0.2,0,70,70,36,,,,,,,,,,,,,214.703338735,None,214.703338735,None,214.703338735,None,215.73995474000003,None,215.73995474000003,None,215.73995474000003,None,0.05,0.2,215.89212776200003,216.055028912,215.89212776200003,216.055028912,215.89212776200003,216.055028912,space,0.2113404889999515,215.89212776200003,None,216.105947457,None,9,001,2020_Apr_18_1911,experiment,2020.1.3,584.0671163204329,
images/light_grey_box_with_cue,images/light_grey_box,images/light_grey_box,images/light_grey_box,images/light_grey_box,images/light_grey_box,0,0.3,0.45,0,71,71,89,,,,,,,,,,,,,216.605479571,None,216.605479571,None,216.605479571,None,217.64260607800003,None,217.64260607800003,None,217.64260607800003,None,0.5,0.65,217.799818915,None,217.799818915,None,217.799818915,None,space,0.12962354100000084,217.799818915,None,217.931809973,None,9,001,2020_Apr_18_1911,experiment,2020.1.3,584.0671163204329,
images/light_grey_box_with_cue,images/light_grey_box,images/light_grey_box,images/light_grey_box,images/light_grey_box,images/light_grey_box,0,0.5,0.65,0,72,72,109,,,,,,,,,,,,,218.430743151,None,218.430743151,None,218.430743151,None,219.46926115500003,None,219.46926115500003,None,219.46926115500003,None,0.05,0.2,219.62528195,219.783252871,219.62528195,219.783252871,219.62528195,219.783252871,space,0.6177777120000201,219.62528195,None,220.24497418800001,None,9,001,2020_Apr_18_1911,experiment,2020.1.3,584.0671163204329,
images/light_grey_box_with_cue,images/light_grey_box,images/light_grey_box,images/light_grey_box,images/light_grey_box_with_target,images/light_grey_box,0,0.1,0.25,0,73,73,44,,,,,,,,,,,,,220.744680367,None,220.744680367,None,220.744680367,None,221.782103308,None,221.782103308,None,221.782103308,None,0.5,0.65,221.934331972,222.091587425,221.934331972,222.091587425,221.934331972,222.091587425,space,0.20256394800003363,221.934331972,None,222.139329621,None,9,001,2020_Apr_18_1911,experiment,2020.1.3,584.0671163204329,
images/light_grey_box,images/light_grey_box,images/light_grey_box_with_cue,images/light_grey_box,images/light_grey_box_with_target,images/light_grey_box,0,0.1,0.25,0,74,74,51,,,,,,,,,,,,,222.639092827,None,222.639092827,None,222.639092827,None,223.67727915,None,223.67727915,None,223.67727915,None,0.05,0.2,223.83928018200004,223.98413786500004,223.83928018200004,223.98413786500004,223.83928018200004,223.98413786500004,space,0.21270464999997785,223.83928018200004,None,224.05440671400004,None,9,001,2020_Apr_18_1911,experiment,2020.1.3,584.0671163204329,
images/light_grey_box,images/light_grey_box,images/light_grey_box_with_cue,images/light_grey_box,images/light_grey_box_with_target,images/light_grey_box,0,0.0,0.15,0,75,75,14,,,,,,,,,,,,,224.554111712,None,224.554111712,None,224.554111712,None,225.59289281600002,None,225.59289281600002,None,225.59289281600002,None,0.5,0.65,225.74710458700002,225.89555232000004,225.74710458700002,225.89555232000004,225.74710458700002,225.89555232000004,space,0.20907255200000918,225.74710458700002,None,225.958614603,None,9,001,2020_Apr_18_1911,experiment,2020.1.3,584.0671163204329,
images/light_grey_box_with_cue,images/light_grey_box,images/light_grey_box,images/light_grey_box,images/light_grey_box,images/light_grey_box,0,0.1,0.25,0,76,76,48,,,,,,,,,,,,,226.458721497,None,226.458721497,None,226.458721497,None,227.49884519900002,None,227.49884519900002,None,227.49884519900002,None,0.3,0.44999999999999996,227.646246159,227.798318773,227.646246159,227.798318773,227.646246159,227.798318773,space,0.19330909100000326,227.646246159,None,227.841929166,None,9,001,2020_Apr_18_1911,experiment,2020.1.3,584.0671163204329,
images/light_grey_box_with_cue,images/light_grey_box,images/light_grey_box,images/light_grey_box,images/light_grey_box_with_target,images/light_grey_box,0,0.05,0.2,0,77,77,22,,,,,,,,,,,,,228.3414376,None,228.3414376,None,228.3414376,None,229.378487647,None,229.378487647,None,229.378487647,None,0.0,0.15,229.53727731499998,229.68677065500003,229.53727731499998,229.68677065500003,229.53727731499998,229.68677065500003,space,0.29983053200004406,229.53727731499998,None,229.839562,None,9,001,2020_Apr_18_1911,experiment,2020.1.3,584.0671163204329,
images/light_grey_box,images/light_grey_box,images/light_grey_box_with_cue,images/light_grey_box,images/light_grey_box,images/light_grey_box,0,0.5,0.65,0,78,78,119,,,,,,,,,,,,,230.33967125000004,None,230.33967125000004,None,230.33967125000004,None,231.37661907199998,None,231.37661907199998,None,231.37661907199998,None,0.5,0.65,231.525722799,231.670821371,231.525722799,231.670821371,231.525722799,231.670821371,space,0.7920918589999815,231.525722799,None,232.32021786400003,None,9,001,2020_Apr_18_1911,experiment,2020.1.3,584.0671163204329,
images/light_grey_box_with_cue,images/light_grey_box,images/light_grey_box,images/light_grey_box,images/light_grey_box_with_target,images/light_grey_box,0,0.0,0.15,0,79,79,0,,,,,,,,,,,,,232.821917284,None,232.821917284,None,232.821917284,None,233.858245835,None,233.858245835,None,233.858245835,None,0.5,0.65,234.00755622600002,234.160617865,234.00755622600002,234.160617865,234.00755622600002,234.160617865,space,0.20430204699999877,234.00755622600002,None,234.213888285,None,9,001,2020_Apr_18_1911,experiment,2020.1.3,584.0671163204329,
images/light_grey_box_with_cue,images/light_grey_box,images/light_grey_box,images/light_grey_box,images/light_grey_box_with_target,images/light_grey_box,0,0.1,0.25,0,80,80,43,,,,,,,,,,,,,234.713753081,None,234.713753081,None,234.713753081,None,235.75151150100004,None,235.75151150100004,None,235.75151150100004,None,0.1,0.25,235.91887751900003,236.06774714300002,235.91887751900003,236.06774714300002,235.91887751900003,236.06774714300002,space,0.31313742800000455,235.91887751900003,None,236.234375403,None,9,001,2020_Apr_18_1911,experiment,2020.1.3,584.0671163204329,
images/light_grey_box_with_cue,images/light_grey_box,images/light_grey_box,images/light_grey_box,images/light_grey_box_with_target,images/light_grey_box,0,0.05,0.2,0,81,81,24,,,,,,,,,,,,,236.73469793100003,None,236.73469793100003,None,236.73469793100003,None,237.77258007900002,None,237.77258007900002,None,237.77258007900002,None,0.1,0.25,237.92336173500001,238.07568433699998,237.92336173500001,238.07568433699998,237.92336173500001,238.07568433699998,space,0.2122444830000063,237.92336173500001,None,238.137987662,None,9,001,2020_Apr_18_1911,experiment,2020.1.3,584.0671163204329,
images/light_grey_box_with_cue,images/light_grey_box,images/light_grey_box,images/light_grey_box,images/light_grey_box_with_target,images/light_grey_box,0,0.1,0.25,0,82,82,41,,,,,,,,,,,,,238.63697817400003,None,238.63697817400003,None,238.63697817400003,None,239.67357113600002,None,239.67357113600002,None,239.67357113600002,None,0.0,0.15,239.825733093,239.97432154199998,239.825733093,239.97432154199998,239.825733093,239.97432154199998,space,0.2994301449999739,239.825733093,None,240.12756457199998,None,9,001,2020_Apr_18_1911,experiment,2020.1.3,584.0671163204329,
images/light_grey_box_with_cue,images/light_grey_box,images/light_grey_box,images/light_grey_box,images/light_grey_box_with_target,images/light_grey_box,0,0.3,0.45,0,83,83,81,,,,,,,,,,,,,240.627513103,None,240.627513103,None,240.627513103,None,241.66556747100003,None,241.66556747100003,None,241.66556747100003,None,0.2,0.35,241.81670208399999,241.96820219300002,241.81670208399999,241.96820219300002,241.81670208399999,241.96820219300002,space,0.2849016209999604,241.81670208399999,None,242.103979761,None,9,001,2020_Apr_18_1911,experiment,2020.1.3,584.0671163204329,
images/light_grey_box_with_cue,images/light_grey_box,images/light_grey_box,images/light_grey_box,images/light_grey_box_with_target,images/light_grey_box,0,0.3,0.45,0,84,84,83,,,,,,,,,,,,,242.60408795300003,None,242.60408795300003,None,242.60408795300003,None,243.64172089200002,None,243.64172089200002,None,243.64172089200002,None,0.05,0.2,243.79922341500003,243.940067226,243.79922341500003,243.940067226,243.79922341500003,243.940067226,space,0.2351758719999566,243.79922341500003,None,244.03616831700003,None,9,001,2020_Apr_18_1911,experiment,2020.1.3,584.0671163204329,
images/light_grey_box,images/light_grey_box,images/light_grey_box_with_cue,images/light_grey_box,images/light_grey_box,images/light_grey_box,0,0.0,0.15,0,85,85,18,,,,,,,,,,,,,244.535186033,None,244.535186033,None,244.535186033,None,245.57187071100003,None,245.57187071100003,None,245.57187071100003,None,0.1,0.25,245.72358377199998,245.87313272400002,245.72358377199998,245.87313272400002,245.72358377199998,245.87313272400002,space,0.3841834100000483,245.72358377199998,None,246.11022964200004,None,9,001,2020_Apr_18_1911,experiment,2020.1.3,584.0671163204329,
images/light_grey_box,images/light_grey_box,images/light_grey_box_with_cue,images/light_grey_box,images/light_grey_box,images/light_grey_box,0,0.5,0.65,0,86,86,118,,,,,,,,,,,,,246.610526601,None,246.610526601,None,246.610526601,None,247.646845068,None,247.646845068,None,247.646845068,None,0.05,0.2,247.796709119,247.942621325,247.796709119,247.942621325,247.796709119,247.942621325,space,0.6616806510000401,247.796709119,None,248.46079052599998,None,9,001,2020_Apr_18_1911,experiment,2020.1.3,584.0671163204329,
images/light_grey_box,images/light_grey_box,images/light_grey_box_with_cue,images/light_grey_box,images/light_grey_box_with_target,images/light_grey_box,0,0.2,0.35,0,87,87,70,,,,,,,,,,,,,248.95974009100001,None,248.95974009100001,None,248.95974009100001,None,249.995868878,None,249.995868878,None,249.995868878,None,0.0,0.15,250.151862156,250.309425863,250.151862156,250.309425863,250.151862156,250.309425863,space,0.3094481939999696,250.151862156,None,250.463692321,None,9,001,2020_Apr_18_1911,experiment,2020.1.3,584.0671163204329,
images/light_grey_box_with_cue,images/light_grey_box,images/light_grey_box,images/light_grey_box,images/light_grey_box,images/light_grey_box_with_target,0,0.2,0.35,0,88,88,67,,,,,,,,,,,,,250.96358798,None,250.96358798,None,250.96358798,None,252.001615442,None,252.001615442,None,252.001615442,None,0.5,0.65,252.18372358100004,252.30235340400003,252.18372358100004,252.30235340400003,252.18372358100004,252.30235340400003,space,0.46614599100001897,252.18372358100004,None,252.65233154999999,None,9,001,2020_Apr_18_1911,experiment,2020.1.3,584.0671163204329,
images/light_grey_box,images/light_grey_box,images/light_grey_box_with_cue,images/light_grey_box,images/light_grey_box,images/light_grey_box_with_target,0,0.5,0.65,0,89,89,117,,,,,,,,,,,,,253.15170498000003,None,253.15170498000003,None,253.15170498000003,None,254.187892663,None,254.187892663,None,254.187892663,None,0.1,0.25,254.34290142500004,254.487809958,254.34290142500004,254.487809958,254.34290142500004,254.487809958,space,0.5998946760000194,254.34290142500004,None,254.94518023300003,None,9,001,2020_Apr_18_1911,experiment,2020.1.3,584.0671163204329,
images/light_grey_box,images/light_grey_box,images/light_grey_box,images/light_grey_box,images/light_grey_box_with_target,images/light_grey_box,0,0.3,0.45,0,90,90,94,,,,,,,,,,,,,255.44633321000003,None,255.44633321000003,None,255.44633321000003,None,256.482549122,None,256.482549122,None,256.482549122,None,0.3,0.44999999999999996,256.655189966,256.78268145600003,256.655189966,256.78268145600003,256.655189966,256.78268145600003,space,0.8789592620000235,256.655189966,None,257.535770882,None,9,001,2020_Apr_18_1911,experiment,2020.1.3,584.0671163204329,
images/light_grey_box_with_cue,images/light_grey_box,images/light_grey_box,images/light_grey_box,images/light_grey_box_with_target,images/light_grey_box,0,0.3,0.45,0,91,91,85,,,,,,,,,,,,,258.036112694,None,258.036112694,None,258.036112694,None,259.07353802200004,None,259.07353802200004,None,259.07353802200004,None,0.5,0.65,259.224900443,259.383089835,259.224900443,259.383089835,259.224900443,259.383089835,space,3.0329334290000247,259.224900443,None,262.260277413,None,9,001,2020_Apr_18_1911,experiment,2020.1.3,584.0671163204329,
images/light_grey_box,images/light_grey_box,images/light_grey_box_with_cue,images/light_grey_box,images/light_grey_box_with_target,images/light_grey_box,0,0.0,0.15,0,92,92,12,,,,,,,,,,,,,262.759758793,None,262.759758793,None,262.759758793,None,263.79693284300004,None,263.79693284300004,None,263.79693284300004,None,0.5,0.65,263.949142693,264.117743083,263.949142693,264.117743083,263.949142693,264.117743083,space,0.2197579029999588,263.949142693,None,264.17150847100004,None,9,001,2020_Apr_18_1911,experiment,2020.1.3,584.0671163204329,
images/light_grey_box,images/light_grey_box,images/light_grey_box,images/light_grey_box,images/light_grey_box_with_target,images/light_grey_box,0,0.3,0.45,0,93,93,95,,,,,,,,,,,,,264.672695872,None,264.672695872,None,264.672695872,None,265.711628442,None,265.711628442,None,265.711628442,None,0.0,0.15,265.861950598,266.01172167600004,265.861950598,266.01172167600004,265.861950598,266.01172167600004,space,0.22459141399997407,265.861950598,None,266.088440208,None,9,001,2020_Apr_18_1911,experiment,2020.1.3,584.0671163204329,
images/light_grey_box_with_cue,images/light_grey_box,images/light_grey_box,images/light_grey_box,images/light_grey_box,images/light_grey_box,0,0.05,0.2,0,94,94,29,,,,,,,,,,,,,266.58875034100004,None,266.58875034100004,None,266.58875034100004,None,267.626636339,None,267.626636339,None,267.626636339,None,0.0,0.15,267.776007074,267.928857033,267.776007074,267.928857033,267.776007074,267.928857033,space,0.19844602199998462,267.776007074,None,267.976237541,None,9,001,2020_Apr_18_1911,experiment,2020.1.3,584.0671163204329,
images/light_grey_box_with_cue,images/light_grey_box,images/light_grey_box,images/light_grey_box,images/light_grey_box_with_target,images/light_grey_box,0,0.05,0.2,0,95,95,21,,,,,,,,,,,,,268.47634983800003,None,268.47634983800003,None,268.47634983800003,None,269.514084291,None,269.514084291,None,269.514084291,None,0.5,0.65,269.665706011,269.820422301,269.665706011,269.820422301,269.665706011,269.820422301,space,0.2447286220000251,269.665706011,None,269.912188844,None,9,001,2020_Apr_18_1911,experiment,2020.1.3,584.0671163204329,
images/light_grey_box,images/light_grey_box,images/light_grey_box_with_cue,images/light_grey_box,images/light_grey_box_with_target,images/light_grey_box,0,0.05,0.2,0,96,96,30,,,,,,,,,,,,,270.412520078,None,270.412520078,None,270.412520078,None,271.452475993,None,271.452475993,None,271.452475993,None,0.0,0.15,271.60581535800003,271.749054995,271.60581535800003,271.749054995,271.60581535800003,271.749054995,space,0.3140097969999829,271.60581535800003,None,271.92228381300004,None,9,001,2020_Apr_18_1911,experiment,2020.1.3,584.0671163204329,
images/light_grey_box,images/light_grey_box,images/light_grey_box_with_cue,images/light_grey_box,images/light_grey_box,images/light_grey_box,0,0.2,0.35,0,97,97,78,,,,,,,,,,,,,272.42304565800004,None,272.42304565800004,None,272.42304565800004,None,273.463479235,None,273.463479235,None,273.463479235,None,0.3,0.44999999999999996,273.609914448,273.76981365200004,273.609914448,273.76981365200004,273.609914448,273.76981365200004,space,0.35327993099997457,273.609914448,None,273.965632803,None,9,001,2020_Apr_18_1911,experiment,2020.1.3,584.0671163204329,
images/light_grey_box,images/light_grey_box,images/light_grey_box,images/light_grey_box,images/light_grey_box_with_target,images/light_grey_box,0,0.3,0.45,0,98,98,93,,,,,,,,,,,,,274.466585791,None,274.466585791,None,274.466585791,None,275.504167145,None,275.504167145,None,275.504167145,None,0.3,0.44999999999999996,275.661043183,275.802773689,275.661043183,275.802773689,275.661043183,275.802773689,space,0.2089903219999769,275.661043183,None,275.872462013,None,9,001,2020_Apr_18_1911,experiment,2020.1.3,584.0671163204329,
images/light_grey_box,images/light_grey_box,images/light_grey_box,images/light_grey_box,images/light_grey_box_with_target,images/light_grey_box,0,0.5,0.65,0,99,99,114,,,,,,,,,,,,,276.371705503,None,276.371705503,None,276.371705503,None,277.406537506,None,277.406537506,None,277.406537506,None,0.0,0.15,277.56191007900003,277.7069334,277.56191007900003,277.7069334,277.56191007900003,277.7069334,space,0.22439903600002253,277.56191007900003,None,277.788837178,None,9,001,2020_Apr_18_1911,experiment,2020.1.3,584.0671163204329,
images/light_grey_box_with_cue,images/light_grey_box,images/light_grey_box,images/light_grey_box,images/light_grey_box_with_target,images/light_grey_box,0,0.2,0.35,0,100,100,61,,,,,,,,,,,,,278.28941793900003,None,278.28941793900003,None,278.28941793900003,None,279.331416142,None,279.331416142,None,279.331416142,None,0.0,0.15,279.480093119,279.626443057,279.480093119,279.626443057,279.480093119,279.626443057,space,0.4853487409999957,279.480093119,None,279.96782164,None,9,001,2020_Apr_18_1911,experiment,2020.1.3,584.0671163204329,
images/light_grey_box,images/light_grey_box,images/light_grey_box_with_cue,images/light_grey_box,images/light_grey_box,images/light_grey_box,0,0.1,0.25,0,101,101,59,,,,,,,,,,,,,280.468417546,None,280.468417546,None,280.468417546,None,281.507320579,None,281.507320579,None,281.507320579,None,0.1,0.25,281.664265064,281.804359157,281.664265064,281.804359157,281.664265064,281.804359157,space,0.2062385289999611,281.664265064,None,281.8730506,None,9,001,2020_Apr_18_1911,experiment,2020.1.3,584.0671163204329,
images/light_grey_box,images/light_grey_box,images/light_grey_box,images/light_grey_box,images/light_grey_box_with_target,images/light_grey_box,0,0.05,0.2,0,102,102,35,,,,,,,,,,,,,282.37269243500003,None,282.37269243500003,None,282.37269243500003,None,283.407911318,None,283.407911318,None,283.407911318,None,0.1,0.25,283.574025334,283.71104037000003,283.574025334,283.71104037000003,283.574025334,283.71104037000003,space,2.6176041420000047,283.574025334,None,286.19412806,None,9,001,2020_Apr_18_1911,experiment,2020.1.3,584.0671163204329,
images/light_grey_box_with_cue,images/light_grey_box,images/light_grey_box,images/light_grey_box,images/light_grey_box_with_target,images/light_grey_box,0,0.1,0.25,0,103,103,45,,,,,,,,,,,,,286.694178027,None,286.694178027,None,286.694178027,None,287.73353456,None,287.73353456,None,287.73353456,None,0.3,0.44999999999999996,287.91369802500003,288.031238829,287.91369802500003,288.031238829,287.91369802500003,288.031238829,space,0.1319898460000104,287.91369802500003,None,288.047917338,None,9,001,2020_Apr_18_1911,experiment,2020.1.3,584.0671163204329,
images/light_grey_box,images/light_grey_box,images/light_grey_box_with_cue,images/light_grey_box,images/light_grey_box_with_target,images/light_grey_box,0,0.05,0.2,0,104,104,31,,,,,,,,,,,,,288.547802355,None,288.547802355,None,288.547802355,None,289.586858946,None,289.586858946,None,289.586858946,None,0.0,0.15,289.737360211,289.914962918,289.737360211,289.914962918,289.737360211,289.914962918,space,0.21271084300002485,289.737360211,None,289.952169685,None,9,001,2020_Apr_18_1911,experiment,2020.1.3,584.0671163204329,
images/light_grey_box,images/light_grey_box,images/light_grey_box,images/light_grey_box,images/light_grey_box_with_target,images/light_grey_box,0,0.2,0.35,0,105,105,76,,,,,,,,,,,,,290.452193482,None,290.452193482,None,290.452193482,None,291.489361438,None,291.489361438,None,291.489361438,None,0.05,0.2,291.643190891,291.790649948,291.643190891,291.790649948,291.643190891,291.790649948,space,0.21440142199998036,291.643190891,None,291.860054911,None,9,001,2020_Apr_18_1911,experiment,2020.1.3,584.0671163204329,
images/light_grey_box,images/light_grey_box,images/light_grey_box,images/light_grey_box,images/light_grey_box_with_target,images/light_grey_box,0,0.1,0.25,0,106,106,53,,,,,,,,,,,,,292.360279604,None,292.360279604,None,292.360279604,None,293.39525124700003,None,293.39525124700003,None,293.39525124700003,None,0.3,0.44999999999999996,293.550818084,293.698915811,293.550818084,293.698915811,293.550818084,293.698915811,space,0.20877337299998544,293.550818084,None,293.761642196,None,9,001,2020_Apr_18_1911,experiment,2020.1.3,584.0671163204329,
images/light_grey_box_with_cue,images/light_grey_box,images/light_grey_box,images/light_grey_box,images/light_grey_box,images/light_grey_box,0,0.2,0.35,0,107,107,69,,,,,,,,,,,,,294.261510111,None,294.261510111,None,294.261510111,None,295.298052144,None,295.298052144,None,295.298052144,None,0.5,0.65,295.448250293,295.605635176,295.448250293,295.605635176,295.448250293,295.605635176,space,1.1301835630000028,295.448250293,None,296.58082349,None,9,001,2020_Apr_18_1911,experiment,2020.1.3,584.0671163204329,
images/light_grey_box_with_cue,images/light_grey_box,images/light_grey_box,images/light_grey_box,images/light_grey_box,images/light_grey_box,0,0.5,0.65,0,108,108,108,,,,,,,,,,,,,297.081004934,None,297.081004934,None,297.081004934,None,298.11826106,None,298.11826106,None,298.11826106,None,0.05,0.2,298.26845371900004,298.422124309,298.26845371900004,298.422124309,298.26845371900004,298.422124309,space,0.22199173500001734,298.26845371900004,None,298.492913083,None,9,001,2020_Apr_18_1911,experiment,2020.1.3,584.0671163204329,
images/light_grey_box,images/light_grey_box,images/light_grey_box_with_cue,images/light_grey_box_with_target,images/light_grey_box,images/light_grey_box,0,0.0,0.15,0,109,109,16,,,,,,,,,,,,,298.993811919,None,298.993811919,None,298.993811919,None,300.02978326600004,None,300.02978326600004,None,300.02978326600004,None,0.5,0.65,300.189066275,300.33239728300003,300.189066275,300.33239728300003,300.189066275,300.33239728300003,space,0.33652342499999577,300.189066275,None,300.528233168,None,9,001,2020_Apr_18_1911,experiment,2020.1.3,584.0671163204329,
images/light_grey_box,images/light_grey_box,images/light_grey_box_with_cue,images/light_grey_box,images/light_grey_box_with_target,images/light_grey_box,0,0.05,0.2,0,110,110,32,,,,,,,,,,,,,301.027624595,None,301.027624595,None,301.027624595,None,302.065559404,None,302.065559404,None,302.065559404,None,0.05,0.2,302.21586577700003,302.369406029,302.21586577700003,302.369406029,302.21586577700003,302.369406029,space,0.3192419930000483,302.21586577700003,None,302.537601686,None,9,001,2020_Apr_18_1911,experiment,2020.1.3,584.0671163204329,
images/light_grey_box,images/light_grey_box,images/light_grey_box_with_cue,images/light_grey_box,images/light_grey_box_with_target,images/light_grey_box,0,0.3,0.45,0,111,111,92,,,,,,,,,,,,,303.03858776100003,None,303.03858776100003,None,303.03858776100003,None,304.075385062,None,304.075385062,None,304.075385062,None,0.1,0.25,304.224867647,304.382692683,304.224867647,304.382692683,304.224867647,304.382692683,space,0.23794507599995995,304.224867647,None,304.465119946,None,9,001,2020_Apr_18_1911,experiment,2020.1.3,584.0671163204329,
images/light_grey_box,images/light_grey_box,images/light_grey_box_with_cue,images/light_grey_box,images/light_grey_box,images/light_grey_box,0,0.1,0.25,0,112,112,58,,,,,,,,,,,,,304.964448451,None,304.964448451,None,304.964448451,None,306.001221789,None,306.001221789,None,306.001221789,None,0.5,0.65,306.16019231,306.30018631900003,306.16019231,306.30018631900003,306.16019231,306.30018631900003,space,0.2233036460000335,306.16019231,None,306.38631367,None,9,001,2020_Apr_18_1911,experiment,2020.1.3,584.0671163204329,
images/light_grey_box_with_cue,images/light_grey_box,images/light_grey_box,images/light_grey_box,images/light_grey_box_with_target,images/light_grey_box,0,0.0,0.15,0,113,113,1,,,,,,,,,,,,,306.885388327,None,306.885388327,None,306.885388327,None,307.92212686100004,None,307.92212686100004,None,307.92212686100004,None,0.3,0.44999999999999996,308.085098671,308.236682203,308.085098671,308.236682203,308.085098671,308.236682203,space,0.3017842250000058,308.085098671,None,308.38874846600004,None,9,001,2020_Apr_18_1911,experiment,2020.1.3,584.0671163204329,
images/light_grey_box,images/light_grey_box,images/light_grey_box_with_cue,images/light_grey_box,images/light_grey_box,images/light_grey_box_with_target,0,0.0,0.15,0,114,114,17,,,,,,,,,,,,,308.888837861,None,308.888837861,None,308.888837861,None,309.92621250900004,None,309.92621250900004,None,309.92621250900004,None,0.3,0.44999999999999996,310.08132661900004,310.227015629,310.08132661900004,310.227015629,310.08132661900004,310.227015629,space,0.2305391840000084,310.08132661900004,None,310.31425120800003,None,9,001,2020_Apr_18_1911,experiment,2020.1.3,584.0671163204329,
images/light_grey_box_with_cue,images/light_grey_box,images/light_grey_box,images/light_grey_box,images/light_grey_box,images/light_grey_box,0,0.05,0.2,0,115,115,28,,,,,,,,,,,,,310.814539883,None,310.814539883,None,310.814539883,None,311.851764705,None,311.851764705,None,311.851764705,None,0.2,0.35,312.004352655,None,312.004352655,None,312.004352655,None,space,0.13049061799995343,312.004352655,None,312.137329571,None,9,001,2020_Apr_18_1911,experiment,2020.1.3,584.0671163204329,
images/light_grey_box_with_cue,images/light_grey_box,images/light_grey_box,images/light_grey_box,images/light_grey_box,images/light_grey_box_with_target,0,0.1,0.25,0,116,116,47,,,,,,,,,,,,,312.638119929,None,312.638119929,None,312.638119929,None,313.675941334,None,313.675941334,None,313.675941334,None,0.2,0.35,313.84859682,313.97084043800004,313.84859682,313.97084043800004,313.84859682,313.97084043800004,space,0.294047992000003,313.84859682,None,314.144944714,None,9,001,2020_Apr_18_1911,experiment,2020.1.3,584.0671163204329,
images/light_grey_box,images/light_grey_box,images/light_grey_box_with_cue,images/light_grey_box,images/light_grey_box_with_target,images/light_grey_box,0,0.0,0.15,0,117,117,13,,,,,,,,,,,,,314.644356608,None,314.644356608,None,314.644356608,None,315.681744509,None,315.681744509,None,315.681744509,None,0.05,0.2,315.83521702400003,315.993532629,315.83521702400003,315.993532629,315.83521702400003,315.993532629,space,0.19495830799996838,315.83521702400003,None,316.032581239,None,9,001,2020_Apr_18_1911,experiment,2020.1.3,584.0671163204329,
images/light_grey_box_with_cue,images/light_grey_box,images/light_grey_box,images/light_grey_box,images/light_grey_box_with_target,images/light_grey_box,0,0.05,0.2,0,118,118,25,,,,,,,,,,,,,316.532926316,None,316.532926316,None,316.532926316,None,317.569784394,None,317.569784394,None,317.569784394,None,0.0,0.15,317.72111545300004,317.87159834100004,317.72111545300004,317.87159834100004,317.72111545300004,317.87159834100004,space,0.22564137000000528,317.72111545300004,None,317.949246373,None,9,001,2020_Apr_18_1911,experiment,2020.1.3,584.0671163204329,
images/light_grey_box,images/light_grey_box,images/light_grey_box_with_cue,images/light_grey_box,images/light_grey_box_with_target,images/light_grey_box,0,0.2,0.35,0,119,119,72,,,,,,,,,,,,,318.448397745,None,318.448397745,None,318.448397745,None,319.489149425,None,319.489149425,None,319.489149425,None,0.1,0.25,319.647259237,319.787204643,319.647259237,319.787204643,319.647259237,319.787204643,space,0.24180432800000062,319.647259237,None,319.89143354600003,None,9,001,2020_Apr_18_1911,experiment,2020.1.3,584.0671163204329,
