image_cue_1,image_cue_2,image_cue_3,image_target_1,image_target_2,image_target_3,targetStart,startTime,endTime,trials.thisRepN,trials.thisTrialN,trials.thisN,trials.thisIndex,textWelcome.started,textWelcome.stopped,keyWelcome.keys,keyWelcome.rt,keyWelcome.started,keyWelcome.stopped,textStart.started,textStart.stopped,keyStart.keys,keyStart.rt,keyStart.started,keyStart.stopped,imageTrailBefore_1.started,imageTrailBefore_1.stopped,imageTrialBefore_2.started,imageTrialBefore_2.stopped,imageTrialBefore_3.started,imageTrialBefore_3.stopped,imageTrialCue_1.started,imageTrialCue_1.stopped,imageTrialCue_2.started,imageTrialCue_2.stopped,imageTrialCue_3.started,imageTrialCue_3.stopped,TrialSceenTargetStart,TrialSceenTargetEnd,imageTrialTarget_1.started,imageTrialTarget_1.stopped,imageTrialTarget_2.started,imageTrialTarget_2.stopped,imageTrialTarget_3.started,imageTrialTarget_3.stopped,keyResponse.keys,keyResponse.rt,keyResponse.started,keyResponse.stopped,textBlank500.started,textBlank500.stopped,textEndSceen.started,textEndSceen.stopped,participant,session,date,expName,psychopyVersion,frameRate,
,,,,,,,,,,,,,10.585382505087182,None,space,7.347630868083797,10.585382505087182,None,,,,,,,,,,,,,,,,,,,,,,,,,,,,,,,,,,,ahilya,001,2020_Apr_17_2138,experiment,2020.1.3,60.183245941316784,
,,,,,,,,,,,,,,,,,,,17.947081211023033,None,space,2.356878240010701,17.947081211023033,None,,,,,,,,,,,,,,,,,,,,,,,,,,,,,ahilya,001,2020_Apr_17_2138,experiment,2020.1.3,60.183245941316784,
images/light_grey_box,images/light_grey_box,images/light_grey_box,images/light_grey_box,images/light_grey_box_with_target,images/light_grey_box,0,0.2,0.35,0,0,0,73,,,,,,,,,,,,,20.351981418090872,None,20.351981418090872,None,20.351981418090872,None,21.342925165081397,None,21.342925165081397,None,21.342925165081397,None,0.05,0.2,21.56018580205273,21.625510336016305,21.56018580205273,21.625510336016305,21.56018580205273,21.625510336016305,space,0.3027452549431473,21.56018580205273,None,21.877613337012008,None,,,ahilya,001,2020_Apr_17_2138,experiment,2020.1.3,60.183245941316784,
images/light_grey_box,images/light_grey_box,images/light_grey_box_with_cue,images/light_grey_box,images/light_grey_box_with_target,images/light_grey_box,0,0.1,0.25,0,1,1,50,,,,,,,,,,,,,22.39242084301077,None,22.39242084301077,None,22.39242084301077,None,23.409744541044347,None,23.409744541044347,None,23.409744541044347,None,0.3,0.44999999999999996,23.556510088033974,23.758849721052684,23.556510088033974,23.758849721052684,23.556510088033974,23.758849721052684,space,0.3064659850206226,23.556510088033974,None,23.876239741104655,None,,,ahilya,001,2020_Apr_17_2138,experiment,2020.1.3,60.183245941316784,
images/light_grey_box,images/light_grey_box,images/light_grey_box_with_cue,images/light_grey_box,images/light_grey_box,images/light_grey_box,0,0.0,0.15,0,2,2,19,,,,,,,,,,,,,24.391597970039584,None,24.391597970039584,None,24.391597970039584,None,25.405807316070423,None,25.405807316070423,None,25.405807316070423,None,0.05,0.2,25.590780483093113,25.807555650011636,25.590780483093113,25.807555650011636,25.590780483093113,25.807555650011636,space,0.23933479795232415,25.590780483093113,None,25.844025567057543,None,,,ahilya,001,2020_Apr_17_2138,experiment,2020.1.3,60.183245941316784,
images/light_grey_box,images/light_grey_box,images/light_grey_box_with_cue,images/light_grey_box,images/light_grey_box_with_target,images/light_grey_box,0,0.5,0.65,0,3,3,111,,,,,,,,,,,,,26.35820753907319,None,26.35820753907319,None,26.35820753907319,None,27.371489340090193,None,27.371489340090193,None,27.371489340090193,None,0.5,0.65,27.590814891038463,None,27.590814891038463,None,27.590814891038463,None,space,0.12127145298290998,27.590814891038463,None,27.725984442047775,None,,,ahilya,001,2020_Apr_17_2138,experiment,2020.1.3,60.183245941316784,
images/light_grey_box_with_cue,images/light_grey_box,images/light_grey_box,images/light_grey_box,images/light_grey_box_with_target,images/light_grey_box,0,0.05,0.2,0,4,4,24,,,,,,,,,,,,,28.241733313072473,None,28.241733313072473,None,28.241733313072473,None,29.25620826310478,None,29.25620826310478,None,29.25620826310478,None,0.2,0.35,29.508406990091316,29.591812973027118,29.508406990091316,29.591812973027118,29.508406990091316,29.591812973027118,space,0.1712629470275715,29.508406990091316,None,29.693895564065315,None,,,ahilya,001,2020_Apr_17_2138,experiment,2020.1.3,60.183245941316784,
images/light_grey_box_with_cue,images/light_grey_box,images/light_grey_box,images/light_grey_box,images/light_grey_box_with_target,images/light_grey_box,0,0.1,0.25,0,5,5,41,,,,,,,,,,,,,30.207443193998188,None,30.207443193998188,None,30.207443193998188,None,31.222552214050665,None,31.222552214050665,None,31.222552214050665,None,0.2,0.35,31.396104205050506,None,31.396104205050506,None,31.396104205050506,None,space,0.15037023404147476,31.396104205050506,None,31.56035690603312,None,,,ahilya,001,2020_Apr_17_2138,experiment,2020.1.3,60.183245941316784,
images/light_grey_box,images/light_grey_box,images/light_grey_box_with_cue,images/light_grey_box,images/light_grey_box,images/light_grey_box,0,0.3,0.45,0,6,6,98,,,,,,,,,,,,,32.07501580310054,None,32.07501580310054,None,32.07501580310054,None,33.08853910607286,None,33.08853910607286,None,33.08853910607286,None,0.2,0.35,33.258999495068565,None,33.258999495068565,None,33.258999495068565,None,space,0.13671132293529809,33.258999495068565,None,33.40986850799527,None,,,ahilya,001,2020_Apr_17_2138,experiment,2020.1.3,60.183245941316784,
images/light_grey_box_with_cue,images/light_grey_box,images/light_grey_box,images/light_grey_box,images/light_grey_box,images/light_grey_box,0,0.2,0.35,0,7,7,68,,,,,,,,,,,,,33.92493162408937,None,33.92493162408937,None,33.92493162408937,None,34.93976703903172,None,34.93976703903172,None,34.93976703903172,None,0.05,0.2,35.124625456053764,None,35.124625456053764,None,35.124625456053764,None,space,0.1386177089298144,35.124625456053764,None,35.27650633500889,None,,,ahilya,001,2020_Apr_17_2138,experiment,2020.1.3,60.183245941316784,
images/light_grey_box,images/light_grey_box,images/light_grey_box_with_cue,images/light_grey_box,images/light_grey_box_with_target,images/light_grey_box,0,0.1,0.25,0,8,8,52,,,,,,,,,,,,,35.79165714106057,None,35.79165714106057,None,35.79165714106057,None,36.805355485063046,None,36.805355485063046,None,36.805355485063046,None,0.3,0.44999999999999996,36.96534411399625,37.125901525025256,36.96534411399625,37.125901525025256,36.96534411399625,37.125901525025256,space,0.16452220198698342,36.96534411399625,None,37.143795835087076,None,,,ahilya,001,2020_Apr_17_2138,experiment,2020.1.3,60.183245941316784,
images/light_grey_box,images/light_grey_box,images/light_grey_box_with_cue,images/light_grey_box,images/light_grey_box_with_target,images/light_grey_box,0,0.0,0.15,0,9,9,13,,,,,,,,,,,,,37.65823018504307,None,37.65823018504307,None,37.65823018504307,None,38.67184637405444,None,38.67184637405444,None,38.67184637405444,None,0.1,0.25,38.859255368006416,None,38.859255368006416,None,38.859255368006416,None,space,0.08635655406396836,38.859255368006416,None,38.959576018038206,None,,,ahilya,001,2020_Apr_17_2138,experiment,2020.1.3,60.183245941316784,
images/light_grey_box_with_cue,images/light_grey_box,images/light_grey_box,images/light_grey_box,images/light_grey_box_with_target,images/light_grey_box,0,0.1,0.25,0,10,10,40,,,,,,,,,,,,,39.47490015800577,None,39.47490015800577,None,39.47490015800577,None,40.49009005201515,None,40.49009005201515,None,40.49009005201515,None,0.3,0.44999999999999996,40.691207669093274,None,40.691207669093274,None,40.691207669093274,None,space,0.021038832957856357,40.691207669093274,None,40.72586167708505,None,,,ahilya,001,2020_Apr_17_2138,experiment,2020.1.3,60.183245941316784,
images/light_grey_box_with_cue,images/light_grey_box,images/light_grey_box,images/light_grey_box,images/light_grey_box_with_target,images/light_grey_box,0,0.5,0.65,0,11,11,104,,,,,,,,,,,,,41.241554468055256,None,41.241554468055256,None,41.241554468055256,None,42.25901706109289,None,42.25901706109289,None,42.25901706109289,None,0.2,0.35,42.474982497049496,None,42.474982497049496,None,42.474982497049496,None,space,0.03747857501730323,42.474982497049496,None,42.526595220086165,None,,,ahilya,001,2020_Apr_17_2138,experiment,2020.1.3,60.183245941316784,
images/light_grey_box_with_cue,images/light_grey_box,images/light_grey_box,images/light_grey_box,images/light_grey_box,images/light_grey_box,0,0.05,0.2,0,12,12,28,,,,,,,,,,,,,43.04189008299727,None,43.04189008299727,None,43.04189008299727,None,44.056768830050714,None,44.056768830050714,None,44.056768830050714,None,0.2,0.35,44.20040851808153,None,44.20040851808153,None,44.20040851808153,None,space,0.09123335697222501,44.20040851808153,None,44.30754798906855,None,,,ahilya,001,2020_Apr_17_2138,experiment,2020.1.3,60.183245941316784,
images/light_grey_box,images/light_grey_box,images/light_grey_box_with_cue,images/light_grey_box,images/light_grey_box,images/light_grey_box,0,0.2,0.35,0,13,13,79,,,,,,,,,,,,,44.80815822002478,None,44.80815822002478,None,44.80815822002478,None,45.822175479028374,None,45.822175479028374,None,45.822175479028374,None,0.1,0.25,46.12672311300412,46.17694299807772,46.12672311300412,46.17694299807772,46.12672311300412,46.17694299807772,space,12.585128778009675,46.12672311300412,None,58.72576371510513,None,,,ahilya,001,2020_Apr_17_2138,experiment,2020.1.3,60.183245941316784,
images/light_grey_box,images/light_grey_box,images/light_grey_box_with_cue,images/light_grey_box,images/light_grey_box,images/light_grey_box,0,0.1,0.25,0,14,14,59,,,,,,,,,,,,,59.24117043300066,None,59.24117043300066,None,59.24117043300066,None,60.25450425106101,None,60.25450425106101,None,60.25450425106101,None,0.1,0.25,60.52442587702535,60.59109095809981,60.52442587702535,60.59109095809981,60.52442587702535,60.59109095809981,space,0.1207293439656496,60.52442587702535,None,60.65895769908093,None,,,ahilya,001,2020_Apr_17_2138,experiment,2020.1.3,60.183245941316784,
images/light_grey_box,images/light_grey_box,images/light_grey_box_with_cue,images/light_grey_box,images/light_grey_box_with_target,images/light_grey_box,0,0.5,0.65,0,15,15,110,,,,,,,,,,,,,61.17470822506584,None,61.17470822506584,None,61.17470822506584,None,62.18846083409153,None,62.18846083409153,None,62.18846083409153,None,0.1,0.25,62.37409675004892,62.52439659903757,62.37409675004892,62.52439659903757,62.37409675004892,62.52439659903757,space,3.300998479942791,62.37409675004892,None,65.69036378106102,None,,,ahilya,001,2020_Apr_17_2138,experiment,2020.1.3,60.183245941316784,
images/light_grey_box,images/light_grey_box,images/light_grey_box_with_cue,images/light_grey_box,images/light_grey_box,images/light_grey_box_with_target,0,0.2,0.35,0,16,16,77,,,,,,,,,,,,,66.19112998608034,None,66.19112998608034,None,66.19112998608034,None,67.204752627993,None,67.204752627993,None,67.204752627993,None,0.5,0.65,67.4073524660198,67.50791270006448,67.4073524660198,67.50791270006448,67.4073524660198,67.50791270006448,space,0.13963600294664502,67.4073524660198,None,67.55866760003846,None,,,ahilya,001,2020_Apr_17_2138,experiment,2020.1.3,60.183245941316784,
images/light_grey_box,images/light_grey_box,images/light_grey_box_with_cue,images/light_grey_box,images/light_grey_box,images/light_grey_box,0,0.5,0.65,0,17,17,118,,,,,,,,,,,,,68.07428067305591,None,68.07428067305591,None,68.07428067305591,None,69.08961060002912,None,69.08961060002912,None,69.08961060002912,None,0.1,0.25,69.24383032904007,69.40762035001535,69.24383032904007,69.40762035001535,69.24383032904007,69.40762035001535,space,0.1853158650919795,69.24383032904007,None,69.44238665304147,None,,,ahilya,001,2020_Apr_17_2138,experiment,2020.1.3,60.183245941316784,
images/light_grey_box_with_cue,images/light_grey_box,images/light_grey_box,images/light_grey_box,images/light_grey_box_with_target,images/light_grey_box,0,0.1,0.25,0,18,18,42,,,,,,,,,,,,,69.95723853702657,None,69.95723853702657,None,69.95723853702657,None,70.97278728103265,None,70.97278728103265,None,70.97278728103265,None,0.2,0.35,71.15739297110122,None,71.15739297110122,None,71.15739297110122,None,space,0.15434599202126265,71.15739297110122,None,71.32677000609692,None,,,ahilya,001,2020_Apr_17_2138,experiment,2020.1.3,60.183245941316784,
images/light_grey_box_with_cue,images/light_grey_box,images/light_grey_box,images/light_grey_box,images/light_grey_box,images/light_grey_box,0,0.1,0.25,0,19,19,49,,,,,,,,,,,,,71.84087596600875,None,71.84087596600875,None,71.84087596600875,None,72.85557390609756,None,72.85557390609756,None,72.85557390609756,None,0.05,0.2,73.01039459102321,73.15753027808387,73.01039459102321,73.15753027808387,73.01039459102321,73.15753027808387,space,0.1870017210021615,73.01039459102321,None,73.21146456210408,None,,,ahilya,001,2020_Apr_17_2138,experiment,2020.1.3,60.183245941316784,
images/light_grey_box,images/light_grey_box,images/light_grey_box_with_cue,images/light_grey_box,images/light_grey_box_with_target,images/light_grey_box,0,0.0,0.15,0,20,20,15,,,,,,,,,,,,,73.72561882110313,None,73.72561882110313,None,73.72561882110313,None,74.73258652503137,None,74.73258652503137,None,74.73258652503137,None,0.05,0.2,74.94244301400613,75.0753518800484,74.94244301400613,75.0753518800484,74.94244301400613,75.0753518800484,space,0.15345499303657562,74.94244301400613,None,75.11019037000369,None,,,ahilya,001,2020_Apr_17_2138,experiment,2020.1.3,60.183245941316784,
images/light_grey_box,images/light_grey_box,images/light_grey_box_with_cue,images/light_grey_box,images/light_grey_box_with_target,images/light_grey_box,0,0.0,0.15,0,21,21,12,,,,,,,,,,,,,75.62529521400575,None,75.62529521400575,None,75.62529521400575,None,76.63950636005029,None,76.63950636005029,None,76.63950636005029,None,0.5,0.65,76.81353486410808,76.95837729109917,76.81353486410808,76.95837729109917,76.81353486410808,76.95837729109917,space,0.3308044789591804,76.81353486410808,None,77.15797131601721,None,,,ahilya,001,2020_Apr_17_2138,experiment,2020.1.3,60.183245941316784,
images/light_grey_box,images/light_grey_box,images/light_grey_box,images/light_grey_box,images/light_grey_box_with_target,images/light_grey_box,0,0.5,0.65,0,22,22,116,,,,,,,,,,,,,77.65827754302882,None,77.65827754302882,None,77.65827754302882,None,78.6666563260369,None,78.6666563260369,None,78.6666563260369,None,0.1,0.25,78.850583073101,78.97504663001746,78.850583073101,78.97504663001746,78.850583073101,78.97504663001746,space,0.32718296500388533,78.850583073101,None,79.1913328890223,None,,,ahilya,001,2020_Apr_17_2138,experiment,2020.1.3,60.183245941316784,
images/light_grey_box,images/light_grey_box,images/light_grey_box_with_cue,images/light_grey_box,images/light_grey_box,images/light_grey_box_with_target,0,0.0,0.15,0,23,23,17,,,,,,,,,,,,,79.70650066703092,None,79.70650066703092,None,79.70650066703092,None,80.72056619008072,None,80.72056619008072,None,80.72056619008072,None,0.0,0.15,80.89189953601453,81.00750731606968,80.89189953601453,81.00750731606968,80.89189953601453,81.00750731606968,space,0.17054285400081426,80.89189953601453,None,81.075272066053,None,,,ahilya,001,2020_Apr_17_2138,experiment,2020.1.3,60.183245941316784,
images/light_grey_box,images/light_grey_box,images/light_grey_box_with_cue,images/light_grey_box,images/light_grey_box,images/light_grey_box_with_target,0,0.5,0.65,0,24,24,117,,,,,,,,,,,,,81.59083057707176,None,81.59083057707176,None,81.59083057707176,None,82.60419974604156,None,82.60419974604156,None,82.60419974604156,None,0.05,0.2,82.75422133004759,82.95750789809972,82.75422133004759,82.95750789809972,82.75422133004759,82.95750789809972,space,0.35714760096743703,82.75422133004759,None,83.12657163210679,None,,,ahilya,001,2020_Apr_17_2138,experiment,2020.1.3,60.183245941316784,
images/light_grey_box_with_cue,images/light_grey_box,images/light_grey_box,images/light_grey_box,images/light_grey_box,images/light_grey_box,0,0.1,0.25,0,25,25,48,,,,,,,,,,,,,83.64077039703261,None,83.64077039703261,None,83.64077039703261,None,84.65476524806581,None,84.65476524806581,None,84.65476524806581,None,0.2,0.35,84.84030111110769,84.95757086307276,84.84030111110769,84.95757086307276,84.84030111110769,84.95757086307276,space,0.18831786001101136,84.84030111110769,None,85.04243865609169,None,,,ahilya,001,2020_Apr_17_2138,experiment,2020.1.3,60.183245941316784,
images/light_grey_box_with_cue,images/light_grey_box,images/light_grey_box,images/light_grey_box,images/light_grey_box_with_target,images/light_grey_box,0,0.3,0.45,0,26,26,85,,,,,,,,,,,,,85.55743046908174,None,85.55743046908174,None,85.55743046908174,None,86.56993615999818,None,86.56993615999818,None,86.56993615999818,None,0.05,0.2,86.73021060309839,86.89074149902444,86.73021060309839,86.89074149902444,86.73021060309839,86.89074149902444,space,0.23171103606000543,86.73021060309839,None,86.97589906409848,None,,,ahilya,001,2020_Apr_17_2138,experiment,2020.1.3,60.183245941316784,
images/light_grey_box,images/light_grey_box,images/light_grey_box,images/light_grey_box,images/light_grey_box_with_target,images/light_grey_box,0,0.3,0.45,0,27,27,96,,,,,,,,,,,,,87.49081924406346,None,87.49081924406346,None,87.49081924406346,None,88.49887211504392,None,88.49887211504392,None,88.49887211504392,None,0.5,0.65,88.65411430702079,88.84075948910322,88.65411430702079,88.84075948910322,88.65411430702079,88.84075948910322,space,0.424771987949498,88.65411430702079,None,89.09226184000727,None,,,ahilya,001,2020_Apr_17_2138,experiment,2020.1.3,60.183245941316784,
images/light_grey_box_with_cue,images/light_grey_box,images/light_grey_box,images/light_grey_box_with_target,images/light_grey_box,images/light_grey_box,0,0.3,0.45,0,28,28,86,,,,,,,,,,,,,89.60738279903308,None,89.60738279903308,None,89.60738279903308,None,90.6177771370858,None,90.6177771370858,None,90.6177771370858,None,0.5,0.65,90.76738949702121,90.906579378061,90.76738949702121,90.906579378061,90.76738949702121,90.906579378061,space,0.1576591229531914,90.76738949702121,None,90.93961019208655,None,,,ahilya,001,2020_Apr_17_2138,experiment,2020.1.3,60.183245941316784,
images/light_grey_box_with_cue,images/light_grey_box,images/light_grey_box,images/light_grey_box,images/light_grey_box_with_target,images/light_grey_box,0,0.0,0.15,0,29,29,4,,,,,,,,,,,,,91.4403466010699,None,91.4403466010699,None,91.4403466010699,None,92.4531490020454,None,92.4531490020454,None,92.4531490020454,None,0.2,0.35,92.69016626907978,92.77414220699575,92.69016626907978,92.77414220699575,92.69016626907978,92.77414220699575,space,0.28803547308780253,92.69016626907978,None,92.9922094300855,None,,,ahilya,001,2020_Apr_17_2138,experiment,2020.1.3,60.183245941316784,
images/light_grey_box_with_cue,images/light_grey_box,images/light_grey_box,images/light_grey_box,images/light_grey_box,images/light_grey_box,0,0.0,0.15,0,30,30,8,,,,,,,,,,,,,93.50754610507283,None,93.50754610507283,None,93.50754610507283,None,94.52209635300096,None,94.52209635300096,None,94.52209635300096,None,0.2,0.35,94.75723552901763,94.85750719404314,94.75723552901763,94.85750719404314,94.75723552901763,94.85750719404314,space,0.27171199792064726,94.75723552901763,None,95.04141361708753,None,,,ahilya,001,2020_Apr_17_2138,experiment,2020.1.3,60.183245941316784,
images/light_grey_box_with_cue,images/light_grey_box,images/light_grey_box,images/light_grey_box,images/light_grey_box_with_target,images/light_grey_box,0,0.5,0.65,0,31,31,101,,,,,,,,,,,,,95.5413255810272,None,95.5413255810272,None,95.5413255810272,None,96.55620869505219,None,96.55620869505219,None,96.55620869505219,None,0.05,0.2,96.77384680707473,96.92412506707478,96.77384680707473,96.92412506707478,96.77384680707473,96.92412506707478,space,0.20419491594657302,96.77384680707473,None,96.99218156607822,None,,,ahilya,001,2020_Apr_17_2138,experiment,2020.1.3,60.183245941316784,
images/light_grey_box_with_cue,images/light_grey_box,images/light_grey_box,images/light_grey_box_with_target,images/light_grey_box,images/light_grey_box,0,0.1,0.25,0,32,32,46,,,,,,,,,,,,,97.50743196008261,None,97.50743196008261,None,97.50743196008261,None,98.5221563760424,None,98.5221563760424,None,98.5221563760424,None,0.1,0.25,98.7098500970751,98.84057395905256,98.7098500970751,98.84057395905256,98.7098500970751,98.84057395905256,space,0.24806118896231055,98.7098500970751,None,98.97324047400616,None,,,ahilya,001,2020_Apr_17_2138,experiment,2020.1.3,60.183245941316784,
images/light_grey_box,images/light_grey_box,images/light_grey_box_with_cue,images/light_grey_box,images/light_grey_box_with_target,images/light_grey_box,0,0.0,0.15,0,33,33,14,,,,,,,,,,,,,99.4739666110836,None,99.4739666110836,None,99.4739666110836,None,100.48798080801498,None,100.48798080801498,None,100.48798080801498,None,0.1,0.25,100.74118488305248,100.8244111010572,100.74118488305248,100.8244111010572,100.74118488305248,100.8244111010572,space,0.12414418801199645,100.74118488305248,None,100.88317563803867,None,,,ahilya,001,2020_Apr_17_2138,experiment,2020.1.3,60.183245941316784,
images/light_grey_box,images/light_grey_box,images/light_grey_box_with_cue,images/light_grey_box,images/light_grey_box,images/light_grey_box,0,0.0,0.15,0,34,34,18,,,,,,,,,,,,,101.39289990102407,None,101.39289990102407,None,101.39289990102407,None,102.40817408403382,None,102.40817408403382,None,102.40817408403382,None,0.2,0.35,102.54928946506698,102.7745684540132,102.54928946506698,102.7745684540132,102.54928946506698,102.7745684540132,space,1.3130068680038676,102.54928946506698,None,103.87631754006725,None,,,ahilya,001,2020_Apr_17_2138,experiment,2020.1.3,60.183245941316784,
images/light_grey_box_with_cue,images/light_grey_box,images/light_grey_box,images/light_grey_box,images/light_grey_box_with_target,images/light_grey_box,0,0.0,0.15,0,35,35,0,,,,,,,,,,,,,104.39130891906098,None,104.39130891906098,None,104.39130891906098,None,105.40531222207937,None,105.40531222207937,None,105.40531222207937,None,0.2,0.35,105.59197658405174,105.69134649110492,105.59197658405174,105.69134649110492,105.59197658405174,105.69134649110492,space,0.1864974449854344,105.59197658405174,None,105.7920166690601,None,,,ahilya,001,2020_Apr_17_2138,experiment,2020.1.3,60.183245941316784,
images/light_grey_box,images/light_grey_box,images/light_grey_box_with_cue,images/light_grey_box,images/light_grey_box_with_target,images/light_grey_box,0,0.0,0.15,0,36,36,11,,,,,,,,,,,,,106.29130250401795,None,106.29130250401795,None,106.29130250401795,None,107.3154507430736,None,107.3154507430736,None,107.3154507430736,None,0.5,0.65,107.54083374503534,107.65652232908178,107.54083374503534,107.65652232908178,107.54083374503534,107.65652232908178,space,0.11959119804669172,107.54083374503534,None,107.67267973301932,None,,,ahilya,001,2020_Apr_17_2138,experiment,2020.1.3,60.183245941316784,
images/light_grey_box_with_cue,images/light_grey_box,images/light_grey_box,images/light_grey_box,images/light_grey_box_with_target,images/light_grey_box,0,0.2,0.35,0,37,37,64,,,,,,,,,,,,,108.17388145509176,None,108.17388145509176,None,108.17388145509176,None,109.18872492702212,None,109.18872492702212,None,109.18872492702212,None,0.5,0.65,109.40624973806553,109.54040562710725,109.40624973806553,109.54040562710725,109.40624973806553,109.54040562710725,space,0.2694558840012178,109.40624973806553,None,109.68921194807626,None,,,ahilya,001,2020_Apr_17_2138,experiment,2020.1.3,60.183245941316784,
images/light_grey_box,images/light_grey_box,images/light_grey_box,images/light_grey_box,images/light_grey_box_with_target,images/light_grey_box,0,0.3,0.45,0,38,38,95,,,,,,,,,,,,,110.1902583159972,None,110.1902583159972,None,110.1902583159972,None,111.1986068621045,None,111.1986068621045,None,111.1986068621045,None,0.5,0.65,111.40703700110316,111.58979700808413,111.40703700110316,111.58979700808413,111.40703700110316,111.58979700808413,space,0.18696537497453392,111.40703700110316,None,111.606658470002,None,,,ahilya,001,2020_Apr_17_2138,experiment,2020.1.3,60.183245941316784,
images/light_grey_box_with_cue,images/light_grey_box,images/light_grey_box,images/light_grey_box,images/light_grey_box_with_target,images/light_grey_box,0,0.5,0.65,0,39,39,100,,,,,,,,,,,,,112.10708686208818,None,112.10708686208818,None,112.10708686208818,None,113.11953336710576,None,113.11953336710576,None,113.11953336710576,None,0.5,0.65,113.35664693103172,113.42378458601888,113.35664693103172,113.42378458601888,113.35664693103172,113.42378458601888,space,0.17118590394966304,113.35664693103172,None,113.54137651005294,None,,,ahilya,001,2020_Apr_17_2138,experiment,2020.1.3,60.183245941316784,
images/light_grey_box_with_cue,images/light_grey_box,images/light_grey_box,images/light_grey_box_with_target,images/light_grey_box,images/light_grey_box,0,0.0,0.15,0,40,40,6,,,,,,,,,,,,,114.05706175602973,None,114.05706175602973,None,114.05706175602973,None,115.07085436000489,None,115.07085436000489,None,115.07085436000489,None,0.05,0.2,115.23114685504697,None,115.23114685504697,None,115.23114685504697,None,space,0.19684236601460725,115.23114685504697,None,115.4407706920756,None,,,ahilya,001,2020_Apr_17_2138,experiment,2020.1.3,60.183245941316784,
images/light_grey_box,images/light_grey_box,images/light_grey_box,images/light_grey_box,images/light_grey_box_with_target,images/light_grey_box,0,0.2,0.35,0,41,41,74,,,,,,,,,,,,,115.94040447601583,None,115.94040447601583,None,115.94040447601583,None,116.94815985509194,None,116.94815985509194,None,116.94815985509194,None,0.1,0.25,117.20708845509216,117.30695845501032,117.20708845509216,117.30695845501032,117.20708845509216,117.30695845501032,space,0.28797199903056026,117.20708845509216,None,117.50810288405046,None,,,ahilya,001,2020_Apr_17_2138,experiment,2020.1.3,60.183245941316784,
images/light_grey_box_with_cue,images/light_grey_box,images/light_grey_box,images/light_grey_box,images/light_grey_box_with_target,images/light_grey_box,0,0.3,0.45,0,42,42,81,,,,,,,,,,,,,118.02361818100326,None,118.02361818100326,None,118.02361818100326,None,119.03748762409668,None,119.03748762409668,None,119.03748762409668,None,0.1,0.25,119.22343071608339,119.32362807902973,119.22343071608339,119.32362807902973,119.22343071608339,119.32362807902973,space,0.17113439098466188,119.22343071608339,None,119.408349268022,None,,,ahilya,001,2020_Apr_17_2138,experiment,2020.1.3,60.183245941316784,
images/light_grey_box,images/light_grey_box,images/light_grey_box,images/light_grey_box,images/light_grey_box_with_target,images/light_grey_box,0,0.05,0.2,0,43,43,36,,,,,,,,,,,,,119.92362698202487,None,119.92362698202487,None,119.92362698202487,None,120.93186086206697,None,120.93186086206697,None,120.93186086206697,None,0.1,0.25,121.15658438904211,121.22361185599584,121.15658438904211,121.22361185599584,121.15658438904211,121.22361185599584,space,0.18780551000963897,121.15658438904211,None,121.35820603708271,None,,,ahilya,001,2020_Apr_17_2138,experiment,2020.1.3,60.183245941316784,
images/light_grey_box_with_cue,images/light_grey_box,images/light_grey_box,images/light_grey_box,images/light_grey_box_with_target,images/light_grey_box,0,0.0,0.15,0,44,44,2,,,,,,,,,,,,,121.87379497906659,None,121.87379497906659,None,121.87379497906659,None,122.88749307999387,None,122.88749307999387,None,122.88749307999387,None,0.1,0.25,123.05978414602578,None,123.05978414602578,None,123.05978414602578,None,space,0.1848055950831622,123.05978414602578,None,123.25792634405661,None,,,ahilya,001,2020_Apr_17_2138,experiment,2020.1.3,60.183245941316784,
images/light_grey_box,images/light_grey_box,images/light_grey_box_with_cue,images/light_grey_box,images/light_grey_box,images/light_grey_box,0,0.3,0.45,0,45,45,99,,,,,,,,,,,,,123.77363344002515,None,123.77363344002515,None,123.77363344002515,None,124.78941776405554,None,124.78941776405554,None,124.78941776405554,None,0.5,0.65,125.00680476706475,125.10706445004325,125.00680476706475,125.10706445004325,125.00680476706475,125.10706445004325,space,0.2377556599676609,125.00680476706475,None,125.25849684304558,None,,,ahilya,001,2020_Apr_17_2138,experiment,2020.1.3,60.183245941316784,
images/light_grey_box,images/light_grey_box,images/light_grey_box,images/light_grey_box,images/light_grey_box_with_target,images/light_grey_box,0,0.2,0.35,0,46,46,76,,,,,,,,,,,,,125.77377254900057,None,125.77377254900057,None,125.77377254900057,None,126.78178910107818,None,126.78178910107818,None,126.78178910107818,None,0.0,0.15,126.94536100002006,127.14026002609171,126.94536100002006,127.14026002609171,126.94536100002006,127.14026002609171,space,0.23106765502598137,126.94536100002006,None,127.18884313909803,None,,,ahilya,001,2020_Apr_17_2138,experiment,2020.1.3,60.183245941316784,
images/light_grey_box,images/light_grey_box,images/light_grey_box,images/light_grey_box,images/light_grey_box_with_target,images/light_grey_box,0,0.1,0.25,0,47,47,54,,,,,,,,,,,,,127.6923745230306,None,127.6923745230306,None,127.6923745230306,None,128.70028262608685,None,128.70028262608685,None,128.70028262608685,None,0.0,0.15,128.89616095507517,129.07546963810455,128.89616095507517,129.07546963810455,128.89616095507517,129.07546963810455,space,0.3162323469296098,128.89616095507517,None,129.22653831006028,None,,,ahilya,001,2020_Apr_17_2138,experiment,2020.1.3,60.183245941316784,
images/light_grey_box_with_cue,images/light_grey_box,images/light_grey_box,images/light_grey_box_with_target,images/light_grey_box,images/light_grey_box,0,0.2,0.35,0,48,48,66,,,,,,,,,,,,,129.74128227704205,None,129.74128227704205,None,129.74128227704205,None,130.7540993820876,None,130.7540993820876,None,130.7540993820876,None,0.0,0.15,130.90473129006568,131.04097423399799,130.90473129006568,131.04097423399799,130.90473129006568,131.04097423399799,space,0.22381996898911893,130.90473129006568,None,131.14274995110463,None,,,ahilya,001,2020_Apr_17_2138,experiment,2020.1.3,60.183245941316784,
images/light_grey_box,images/light_grey_box,images/light_grey_box,images/light_grey_box,images/light_grey_box_with_target,images/light_grey_box,0,0.5,0.65,0,49,49,114,,,,,,,,,,,,,131.65760217804927,None,131.65760217804927,None,131.65760217804927,None,132.66293768200558,None,132.66293768200558,None,132.66293768200558,None,0.5,0.65,132.8432279410772,132.97350766905583,132.8432279410772,132.97350766905583,132.8432279410772,132.97350766905583,space,0.25127365707885474,132.8432279410772,None,133.10837073402945,None,,,ahilya,001,2020_Apr_17_2138,experiment,2020.1.3,60.183245941316784,
images/light_grey_box,images/light_grey_box,images/light_grey_box_with_cue,images/light_grey_box,images/light_grey_box_with_target,images/light_grey_box,0,0.2,0.35,0,50,50,72,,,,,,,,,,,,,133.62232421408407,None,133.62232421408407,None,133.62232421408407,None,134.62880465004127,None,134.62880465004127,None,134.62880465004127,None,0.0,0.15,134.8226718220394,134.95676444401033,134.8226718220394,134.95676444401033,134.8226718220394,134.95676444401033,space,0.1702965529402718,134.8226718220394,None,135.0053627541056,None,,,ahilya,001,2020_Apr_17_2138,experiment,2020.1.3,60.183245941316784,
images/light_grey_box_with_cue,images/light_grey_box,images/light_grey_box,images/light_grey_box,images/light_grey_box,images/light_grey_box,0,0.5,0.65,0,51,51,108,,,,,,,,,,,,,135.5067327740835,None,135.5067327740835,None,135.5067327740835,None,136.5220770650776,None,136.5220770650776,None,136.5220770650776,None,0.1,0.25,136.72334871604107,None,136.72334871604107,None,136.72334871604107,None,space,0.11850749398581684,136.72334871604107,None,136.8564708350459,None,,,ahilya,001,2020_Apr_17_2138,experiment,2020.1.3,60.183245941316784,
images/light_grey_box_with_cue,images/light_grey_box,images/light_grey_box,images/light_grey_box,images/light_grey_box,images/light_grey_box,0,0.2,0.35,0,52,52,69,,,,,,,,,,,,,137.35682092502248,None,137.35682092502248,None,137.35682092502248,None,138.37091949000023,None,138.37091949000023,None,138.37091949000023,None,0.3,0.44999999999999996,138.60660159704275,138.84023222408723,138.60660159704275,138.84023222408723,138.60660159704275,138.84023222408723,space,0.2546525839716196,138.60660159704275,None,138.87497798609547,None,,,ahilya,001,2020_Apr_17_2138,experiment,2020.1.3,60.183245941316784,
images/light_grey_box_with_cue,images/light_grey_box,images/light_grey_box,images/light_grey_box,images/light_grey_box_with_target,images/light_grey_box,0,0.0,0.15,0,53,53,1,,,,,,,,,,,,,139.39022075000685,None,139.39022075000685,None,139.39022075000685,None,140.40554773202166,None,140.40554773202166,None,140.40554773202166,None,0.2,0.35,140.62297018407844,140.72340771206655,140.62297018407844,140.72340771206655,140.62297018407844,140.72340771206655,space,0.20458024297840893,140.62297018407844,None,140.8408472361043,None,,,ahilya,001,2020_Apr_17_2138,experiment,2020.1.3,60.183245941316784,
images/light_grey_box,images/light_grey_box,images/light_grey_box_with_cue,images/light_grey_box,images/light_grey_box_with_target,images/light_grey_box,0,0.05,0.2,0,54,54,32,,,,,,,,,,,,,141.34013863105793,None,141.34013863105793,None,141.34013863105793,None,142.35340645699762,None,142.35340645699762,None,142.35340645699762,None,0.1,0.25,142.5568594870856,142.65698189102113,142.5568594870856,142.65698189102113,142.5568594870856,142.65698189102113,space,0.12099559395574033,142.5568594870856,None,142.69174457900226,None,,,ahilya,001,2020_Apr_17_2138,experiment,2020.1.3,60.183245941316784,
images/light_grey_box,images/light_grey_box,images/light_grey_box,images/light_grey_box,images/light_grey_box_with_target,images/light_grey_box,0,0.05,0.2,0,55,55,35,,,,,,,,,,,,,143.20676665008068,None,143.20676665008068,None,143.20676665008068,None,144.21482407103758,None,144.21482407103758,None,144.21482407103758,None,0.3,0.44999999999999996,144.4064626900945,144.50661636702716,144.4064626900945,144.50661636702716,144.4064626900945,144.50661636702716,space,0.12087245495058596,144.4064626900945,None,144.54115818801802,None,,,ahilya,001,2020_Apr_17_2138,experiment,2020.1.3,60.183245941316784,
images/light_grey_box_with_cue,images/light_grey_box,images/light_grey_box,images/light_grey_box,images/light_grey_box,images/light_grey_box_with_target,0,0.05,0.2,0,56,56,27,,,,,,,,,,,,,145.056557825068,None,145.056557825068,None,145.056557825068,None,146.07087051600683,None,146.07087051600683,None,146.07087051600683,None,0.0,0.15,146.24451444100123,146.40663789899554,146.24451444100123,146.40663789899554,146.24451444100123,146.40663789899554,space,0.1663253449369222,146.24451444100123,None,146.42578166909516,None,,,ahilya,001,2020_Apr_17_2138,experiment,2020.1.3,60.183245941316784,
images/light_grey_box_with_cue,images/light_grey_box,images/light_grey_box,images/light_grey_box,images/light_grey_box_with_target,images/light_grey_box,0,0.1,0.25,0,57,57,43,,,,,,,,,,,,,146.93992377608083,None,146.93992377608083,None,146.93992377608083,None,147.95408012904227,None,147.95408012904227,None,147.95408012904227,None,0.1,0.25,148.1564525270369,None,148.1564525270369,None,148.1564525270369,None,space,0.13764928502496332,148.1564525270369,None,148.3081131920917,None,,,ahilya,001,2020_Apr_17_2138,experiment,2020.1.3,60.183245941316784,
images/light_grey_box_with_cue,images/light_grey_box,images/light_grey_box,images/light_grey_box,images/light_grey_box,images/light_grey_box,0,0.05,0.2,0,58,58,29,,,,,,,,,,,,,148.8234784010565,None,148.8234784010565,None,148.8234784010565,None,149.83776924409904,None,149.83776924409904,None,149.83776924409904,None,0.2,0.35,150.02376723801717,None,150.02376723801717,None,150.02376723801717,None,space,0.1206446000142023,150.02376723801717,None,150.15790323505644,None,,,ahilya,001,2020_Apr_17_2138,experiment,2020.1.3,60.183245941316784,
images/light_grey_box,images/light_grey_box,images/light_grey_box,images/light_grey_box,images/light_grey_box_with_target,images/light_grey_box,0,0.1,0.25,0,59,59,53,,,,,,,,,,,,,150.67343145806808,None,150.67343145806808,None,150.67343145806808,None,151.68146953510586,None,151.68146953510586,None,151.68146953510586,None,0.1,0.25,151.889714891091,152.00678097410128,151.889714891091,152.00678097410128,151.889714891091,152.00678097410128,space,0.18878467101603746,151.889714891091,None,152.09063160803635,None,,,ahilya,001,2020_Apr_17_2138,experiment,2020.1.3,60.183245941316784,
images/light_grey_box_with_cue,images/light_grey_box,images/light_grey_box,images/light_grey_box,images/light_grey_box_with_target,images/light_grey_box,0,0.2,0.35,0,60,60,62,,,,,,,,,,,,,152.5899493950419,None,152.5899493950419,None,152.5899493950419,None,153.60465792100877,None,153.60465792100877,None,153.60465792100877,None,0.5,0.65,153.8560659600189,153.9073710720986,153.8560659600189,153.9073710720986,153.8560659600189,153.9073710720986,space,0.0551166629884392,153.8560659600189,None,153.9249680080684,None,,,ahilya,001,2020_Apr_17_2138,experiment,2020.1.3,60.183245941316784,
images/light_grey_box_with_cue,images/light_grey_box,images/light_grey_box,images/light_grey_box,images/light_grey_box_with_target,images/light_grey_box,0,0.1,0.25,0,61,61,45,,,,,,,,,,,,,154.44007193099242,None,154.44007193099242,None,154.44007193099242,None,155.45449498202652,None,155.45449498202652,None,155.45449498202652,None,0.0,0.15,155.60300021909643,155.75675012206193,155.60300021909643,155.75675012206193,155.60300021909643,155.75675012206193,space,0.19407591607887298,155.60300021909643,None,155.8136134420056,None,,,ahilya,001,2020_Apr_17_2138,experiment,2020.1.3,60.183245941316784,
images/light_grey_box_with_cue,images/light_grey_box,images/light_grey_box,images/light_grey_box,images/light_grey_box_with_target,images/light_grey_box,0,0.2,0.35,0,62,62,63,,,,,,,,,,,,,156.32448723900598,None,156.32448723900598,None,156.32448723900598,None,157.34052670409437,None,157.34052670409437,None,157.34052670409437,None,0.0,0.15,157.55752951209433,None,157.55752951209433,None,157.55752951209433,None,space,0.12088002590462565,157.55752951209433,None,157.69249492802192,None,,,ahilya,001,2020_Apr_17_2138,experiment,2020.1.3,60.183245941316784,
images/light_grey_box,images/light_grey_box,images/light_grey_box_with_cue,images/light_grey_box,images/light_grey_box,images/light_grey_box,0,0.1,0.25,0,63,63,58,,,,,,,,,,,,,158.20756284508388,None,158.20756284508388,None,158.20756284508388,None,159.2213103841059,None,159.2213103841059,None,159.2213103841059,None,0.5,0.65,159.36556999210734,159.50725898204837,159.36556999210734,159.50725898204837,159.36556999210734,159.50725898204837,space,0.19222651899326593,159.36556999210734,None,159.57368271704763,None,,,ahilya,001,2020_Apr_17_2138,experiment,2020.1.3,60.183245941316784,
images/light_grey_box_with_cue,images/light_grey_box,images/light_grey_box,images/light_grey_box,images/light_grey_box_with_target,images/light_grey_box,0,0.0,0.15,0,64,64,5,,,,,,,,,,,,,160.0738619840704,None,160.0738619840704,None,160.0738619840704,None,161.08699592307676,None,161.08699592307676,None,161.08699592307676,None,0.05,0.2,161.2533351239981,None,161.2533351239981,None,161.2533351239981,None,space,0.0183003960410133,161.2533351239981,None,161.28254646703135,None,,,ahilya,001,2020_Apr_17_2138,experiment,2020.1.3,60.183245941316784,
images/light_grey_box_with_cue,images/light_grey_box,images/light_grey_box,images/light_grey_box,images/light_grey_box_with_target,images/light_grey_box,0,0.3,0.45,0,65,65,80,,,,,,,,,,,,,161.79048608907033,None,161.79048608907033,None,161.79048608907033,None,162.8034745240584,None,162.8034745240584,None,162.8034745240584,None,0.2,0.35,162.95223206910305,None,162.95223206910305,None,162.95223206910305,None,space,0.19046416296623647,162.95223206910305,None,163.15512270701583,None,,,ahilya,001,2020_Apr_17_2138,experiment,2020.1.3,60.183245941316784,
images/light_grey_box,images/light_grey_box,images/light_grey_box_with_cue,images/light_grey_box,images/light_grey_box_with_target,images/light_grey_box,0,0.3,0.45,0,66,66,92,,,,,,,,,,,,,163.65559064305853,None,163.65559064305853,None,163.65559064305853,None,164.66497854702175,None,164.66497854702175,None,164.66497854702175,None,0.3,0.44999999999999996,164.90556203201413,None,164.90556203201413,None,164.90556203201413,None,space,0.07134052598848939,164.90556203201413,None,164.99005060002673,None,,,ahilya,001,2020_Apr_17_2138,experiment,2020.1.3,60.183245941316784,
images/light_grey_box_with_cue,images/light_grey_box,images/light_grey_box,images/light_grey_box,images/light_grey_box,images/light_grey_box_with_target,0,0.2,0.35,0,67,67,67,,,,,,,,,,,,,165.48969231406227,None,165.48969231406227,None,165.48969231406227,None,166.50374451105017,None,166.50374451105017,None,166.50374451105017,None,0.05,0.2,166.67751904809847,None,166.67751904809847,None,166.67751904809847,None,space,0.08231285703368485,166.67751904809847,None,166.7738380500814,None,,,ahilya,001,2020_Apr_17_2138,experiment,2020.1.3,60.183245941316784,
images/light_grey_box_with_cue,images/light_grey_box,images/light_grey_box,images/light_grey_box,images/light_grey_box_with_target,images/light_grey_box,0,0.2,0.35,0,68,68,61,,,,,,,,,,,,,167.28964776406065,None,167.28964776406065,None,167.28964776406065,None,168.30408913700376,None,168.30408913700376,None,168.30408913700376,None,0.0,0.15,168.47476797108538,168.70580085599795,168.47476797108538,168.70580085599795,168.47476797108538,168.70580085599795,space,0.23520137497689575,168.47476797108538,None,168.72364304109942,None,,,ahilya,001,2020_Apr_17_2138,experiment,2020.1.3,60.183245941316784,
images/light_grey_box,images/light_grey_box,images/light_grey_box,images/light_grey_box,images/light_grey_box_with_target,images/light_grey_box,0,0.5,0.65,0,69,69,115,,,,,,,,,,,,,169.22297584300395,None,169.22297584300395,None,169.22297584300395,None,170.23120145103894,None,170.23120145103894,None,170.23120145103894,None,0.2,0.35,170.43921407009475,170.60625676903874,170.43921407009475,170.60625676903874,170.43921407009475,170.60625676903874,space,0.18799094203859568,170.43921407009475,None,170.64007314306218,None,,,ahilya,001,2020_Apr_17_2138,experiment,2020.1.3,60.183245941316784,
images/light_grey_box,images/light_grey_box,images/light_grey_box_with_cue,images/light_grey_box,images/light_grey_box_with_target,images/light_grey_box,0,0.2,0.35,0,70,70,70,,,,,,,,,,,,,171.13965362205636,None,171.13965362205636,None,171.13965362205636,None,172.1524078170769,None,172.1524078170769,None,172.1524078170769,None,0.2,0.35,172.31937686400488,None,172.31937686400488,None,172.31937686400488,None,space,0.12478856497909874,172.31937686400488,None,172.45825631706975,None,,,ahilya,001,2020_Apr_17_2138,experiment,2020.1.3,60.183245941316784,
images/light_grey_box_with_cue,images/light_grey_box,images/light_grey_box,images/light_grey_box,images/light_grey_box_with_target,images/light_grey_box,0,0.5,0.65,0,71,71,105,,,,,,,,,,,,,172.97303590504453,None,172.97303590504453,None,172.97303590504453,None,173.9868751351023,None,173.9868751351023,None,173.9868751351023,None,0.05,0.2,174.13551523303613,174.3226712930482,174.13551523303613,174.3226712930482,174.13551523303613,174.3226712930482,space,0.27605139394290745,174.13551523303613,None,174.42473841202445,None,,,ahilya,001,2020_Apr_17_2138,experiment,2020.1.3,60.183245941316784,
images/light_grey_box_with_cue,images/light_grey_box,images/light_grey_box,images/light_grey_box,images/light_grey_box_with_target,images/light_grey_box,0,0.2,0.35,0,72,72,60,,,,,,,,,,,,,174.93947966804262,None,174.93947966804262,None,174.93947966804262,None,175.95325149409473,None,175.95325149409473,None,175.95325149409473,None,0.3,0.44999999999999996,176.17231242009439,176.3228157859994,176.17231242009439,176.3228157859994,176.17231242009439,176.3228157859994,space,0.23380057199392468,176.17231242009439,None,176.42214775900356,None,,,ahilya,001,2020_Apr_17_2138,experiment,2020.1.3,60.183245941316784,
images/light_grey_box,images/light_grey_box,images/light_grey_box_with_cue,images/light_grey_box,images/light_grey_box,images/light_grey_box,0,0.05,0.2,0,73,73,39,,,,,,,,,,,,,176.9231767799938,None,176.9231767799938,None,176.9231767799938,None,177.9357995800674,None,177.9357995800674,None,177.9357995800674,None,0.5,0.65,178.15591263200622,178.3226192489965,178.15591263200622,178.3226192489965,178.15591263200622,178.3226192489965,space,0.2045345950173214,178.15591263200622,None,178.37344911100809,None,,,ahilya,001,2020_Apr_17_2138,experiment,2020.1.3,60.183245941316784,
images/light_grey_box,images/light_grey_box,images/light_grey_box,images/light_grey_box,images/light_grey_box_with_target,images/light_grey_box,0,0.05,0.2,0,74,74,33,,,,,,,,,,,,,178.88944541208912,None,178.88944541208912,None,178.88944541208912,None,179.8977578120539,None,179.8977578120539,None,179.8977578120539,None,0.5,0.65,180.0522809480317,None,180.0522809480317,None,180.0522809480317,None,space,0.20827098505105823,180.0522809480317,None,180.2736950890394,None,,,ahilya,001,2020_Apr_17_2138,experiment,2020.1.3,60.183245941316784,
images/light_grey_box,images/light_grey_box,images/light_grey_box,images/light_grey_box,images/light_grey_box_with_target,images/light_grey_box,0,0.1,0.25,0,75,75,55,,,,,,,,,,,,,180.78947606205475,None,180.78947606205475,None,180.78947606205475,None,181.79746225907002,None,181.79746225907002,None,181.79746225907002,None,0.1,0.25,181.9613425170537,None,181.9613425170537,None,181.9613425170537,None,space,0.21486812096554786,181.9613425170537,None,182.18908334209118,None,,,ahilya,001,2020_Apr_17_2138,experiment,2020.1.3,60.183245941316784,
images/light_grey_box_with_cue,images/light_grey_box,images/light_grey_box,images/light_grey_box_with_target,images/light_grey_box,images/light_grey_box,0,0.05,0.2,0,76,76,26,,,,,,,,,,,,,182.68948583304882,None,182.68948583304882,None,182.68948583304882,None,183.7061099091079,None,183.7061099091079,None,183.7061099091079,None,0.2,0.35,183.88252053409815,None,183.88252053409815,None,183.88252053409815,None,space,0.07816000503953546,183.88252053409815,None,183.9746624120744,None,,,ahilya,001,2020_Apr_17_2138,experiment,2020.1.3,60.183245941316784,
images/light_grey_box,images/light_grey_box,images/light_grey_box_with_cue,images/light_grey_box,images/light_grey_box_with_target,images/light_grey_box,0,0.05,0.2,0,77,77,31,,,,,,,,,,,,,184.4901937081013,None,184.4901937081013,None,184.4901937081013,None,185.50319183210377,None,185.50319183210377,None,185.50319183210377,None,0.1,0.25,185.72338979004417,None,185.72338979004417,None,185.72338979004417,None,space,0.05104091903194785,185.72338979004417,None,185.78989785409067,None,,,ahilya,001,2020_Apr_17_2138,experiment,2020.1.3,60.183245941316784,
images/light_grey_box_with_cue,images/light_grey_box,images/light_grey_box,images/light_grey_box_with_target,images/light_grey_box,images/light_grey_box,0,0.5,0.65,0,78,78,106,,,,,,,,,,,,,186.29015105508734,None,186.29015105508734,None,186.29015105508734,None,187.30302093399223,None,187.30302093399223,None,187.30302093399223,None,0.1,0.25,187.55671784607694,None,187.55671784607694,None,187.55671784607694,None,space,0.03741401503793895,187.55671784607694,None,187.6079394260887,None,,,ahilya,001,2020_Apr_17_2138,experiment,2020.1.3,60.183245941316784,
images/light_grey_box_with_cue,images/light_grey_box,images/light_grey_box,images/light_grey_box,images/light_grey_box,images/light_grey_box,0,0.5,0.65,0,79,79,109,,,,,,,,,,,,,188.1234837929951,None,188.1234837929951,None,188.1234837929951,None,189.1382409700891,None,189.1382409700891,None,189.1382409700891,None,0.5,0.65,189.28256169205997,None,189.28256169205997,None,189.28256169205997,None,space,0.1080032919999212,189.28256169205997,None,189.40646551409736,None,,,ahilya,001,2020_Apr_17_2138,experiment,2020.1.3,60.183245941316784,
images/light_grey_box_with_cue,images/light_grey_box,images/light_grey_box,images/light_grey_box,images/light_grey_box_with_target,images/light_grey_box,0,0.05,0.2,0,80,80,23,,,,,,,,,,,,,189.90605271200184,None,189.90605271200184,None,189.90605271200184,None,190.91977321205195,None,190.91977321205195,None,190.91977321205195,None,0.0,0.15,191.0853239990538,None,191.0853239990538,None,191.0853239990538,None,space,0.04154458804987371,191.0853239990538,None,191.14055674301926,None,,,ahilya,001,2020_Apr_17_2138,experiment,2020.1.3,60.183245941316784,
images/light_grey_box,images/light_grey_box,images/light_grey_box,images/light_grey_box,images/light_grey_box_with_target,images/light_grey_box,0,0.2,0.35,0,81,81,75,,,,,,,,,,,,,191.6559463890735,None,191.6559463890735,None,191.6559463890735,None,192.66181726602372,None,192.66181726602372,None,192.66181726602372,None,0.0,0.15,192.85545079002623,None,192.85545079002623,None,192.85545079002623,None,space,0.20400968205649406,192.85545079002623,None,193.07184558501467,None,,,ahilya,001,2020_Apr_17_2138,experiment,2020.1.3,60.183245941316784,
images/light_grey_box,images/light_grey_box,images/light_grey_box_with_cue,images/light_grey_box,images/light_grey_box_with_target,images/light_grey_box,0,0.2,0.35,0,82,82,71,,,,,,,,,,,,,193.5725791080622,None,193.5725791080622,None,193.5725791080622,None,194.58543155202642,None,194.58543155202642,None,194.58543155202642,None,0.5,0.65,194.76046258409042,None,194.76046258409042,None,194.76046258409042,None,space,0.06543177494313568,194.76046258409042,None,194.83872021501884,None,,,ahilya,001,2020_Apr_17_2138,experiment,2020.1.3,60.183245941316784,
images/light_grey_box,images/light_grey_box,images/light_grey_box_with_cue,images/light_grey_box,images/light_grey_box_with_target,images/light_grey_box,0,0.0,0.15,0,83,83,10,,,,,,,,,,,,,195.33927406801376,None,195.33927406801376,None,195.33927406801376,None,196.35243668104522,None,196.35243668104522,None,196.35243668104522,None,0.5,0.65,196.51865281001665,196.70591562706977,196.51865281001665,196.70591562706977,196.51865281001665,196.70591562706977,space,0.19142494595143944,196.51865281001665,None,196.723091827007,None,,,ahilya,001,2020_Apr_17_2138,experiment,2020.1.3,60.183245941316784,
images/light_grey_box_with_cue,images/light_grey_box,images/light_grey_box,images/light_grey_box,images/light_grey_box_with_target,images/light_grey_box,0,0.0,0.15,0,84,84,3,,,,,,,,,,,,,197.22259020607453,None,197.22259020607453,None,197.22259020607453,None,198.2368160430342,None,198.2368160430342,None,198.2368160430342,None,0.2,0.35,198.43883822101634,None,198.43883822101634,None,198.43883822101634,None,space,0.0540476479800418,198.43883822101634,None,198.50633721705526,None,,,ahilya,001,2020_Apr_17_2138,experiment,2020.1.3,60.183245941316784,
images/light_grey_box,images/light_grey_box,images/light_grey_box_with_cue,images/light_grey_box,images/light_grey_box,images/light_grey_box,0,0.5,0.65,0,85,85,119,,,,,,,,,,,,,199.00585755705833,None,199.00585755705833,None,199.00585755705833,None,200.0183126250049,None,200.0183126250049,None,200.0183126250049,None,0.3,0.44999999999999996,200.2387224290287,None,200.2387224290287,None,200.2387224290287,None,space,0.07170384307391942,200.2387224290287,None,200.32425190403592,None,,,ahilya,001,2020_Apr_17_2138,experiment,2020.1.3,60.183245941316784,
images/light_grey_box_with_cue,images/light_grey_box,images/light_grey_box,images/light_grey_box,images/light_grey_box_with_target,images/light_grey_box,0,0.05,0.2,0,86,86,20,,,,,,,,,,,,,200.83939533308148,None,200.83939533308148,None,200.83939533308148,None,201.8534426590195,None,201.8534426590195,None,201.8534426590195,None,0.0,0.15,202.00201809499413,None,202.00201809499413,None,202.00201809499413,None,space,0.17473644099663943,202.00201809499413,None,202.18996375007555,None,,,ahilya,001,2020_Apr_17_2138,experiment,2020.1.3,60.183245941316784,
images/light_grey_box_with_cue,images/light_grey_box,images/light_grey_box,images/light_grey_box,images/light_grey_box,images/light_grey_box,0,0.0,0.15,0,87,87,9,,,,,,,,,,,,,202.68906647409312,None,202.68906647409312,None,202.68906647409312,None,203.7014782280894,None,203.7014782280894,None,203.7014782280894,None,0.5,0.65,203.8755266830558,204.03918514004909,203.8755266830558,204.03918514004909,203.8755266830558,204.03918514004909,space,0.45096733304671943,203.8755266830558,None,204.3404192540329,None,,,ahilya,001,2020_Apr_17_2138,experiment,2020.1.3,60.183245941316784,
images/light_grey_box,images/light_grey_box,images/light_grey_box_with_cue,images/light_grey_box,images/light_grey_box,images/light_grey_box_with_target,0,0.3,0.45,0,88,88,97,,,,,,,,,,,,,204.8558219471015,None,204.8558219471015,None,204.8558219471015,None,205.86527418310288,None,205.86527418310288,None,205.86527418310288,None,0.2,0.35,206.10582547308877,206.20577881706413,206.10582547308877,206.20577881706413,206.10582547308877,206.20577881706413,space,0.25052789004985243,206.10582547308877,None,206.37172753503546,None,,,ahilya,001,2020_Apr_17_2138,experiment,2020.1.3,60.183245941316784,
images/light_grey_box_with_cue,images/light_grey_box,images/light_grey_box,images/light_grey_box,images/light_grey_box,images/light_grey_box,0,0.3,0.45,0,89,89,89,,,,,,,,,,,,,206.8724828310078,None,206.8724828310078,None,206.8724828310078,None,207.88744436600246,None,207.88744436600246,None,207.88744436600246,None,0.3,0.44999999999999996,208.07329405401833,None,208.07329405401833,None,208.07329405401833,None,space,0.16982688894495368,208.07329405401833,None,208.25677996501327,None,,,ahilya,001,2020_Apr_17_2138,experiment,2020.1.3,60.183245941316784,
images/light_grey_box,images/light_grey_box,images/light_grey_box_with_cue,images/light_grey_box,images/light_grey_box,images/light_grey_box_with_target,0,0.1,0.25,0,90,90,57,,,,,,,,,,,,,208.7724423080217,None,208.7724423080217,None,208.7724423080217,None,209.78225322102662,None,209.78225322102662,None,209.78225322102662,None,0.5,0.65,209.9729376990581,210.10573677008506,209.9729376990581,210.10573677008506,209.9729376990581,210.10573677008506,space,0.15422095800749958,209.9729376990581,None,210.14109917299356,None,,,ahilya,001,2020_Apr_17_2138,experiment,2020.1.3,60.183245941316784,
images/light_grey_box,images/light_grey_box,images/light_grey_box_with_cue,images/light_grey_box,images/light_grey_box_with_target,images/light_grey_box,0,0.3,0.45,0,91,91,91,,,,,,,,,,,,,210.6407256820239,None,210.6407256820239,None,210.6407256820239,None,211.6557591171004,None,211.6557591171004,None,211.6557591171004,None,0.05,0.2,211.82067635201383,None,211.82067635201383,None,211.82067635201383,None,space,0.18991596496198326,211.82067635201383,None,212.0251702630194,None,,,ahilya,001,2020_Apr_17_2138,experiment,2020.1.3,60.183245941316784,
images/light_grey_box,images/light_grey_box,images/light_grey_box_with_cue,images/light_grey_box,images/light_grey_box,images/light_grey_box,0,0.2,0.35,0,92,92,78,,,,,,,,,,,,,212.53985695005395,None,212.53985695005395,None,212.53985695005395,None,213.55388131306972,None,213.55388131306972,None,213.55388131306972,None,0.3,0.44999999999999996,213.7897584020393,213.8565153090749,213.7897584020393,213.8565153090749,213.7897584020393,213.8565153090749,space,0.17058268107939512,213.7897584020393,None,213.9743751740316,None,,,ahilya,001,2020_Apr_17_2138,experiment,2020.1.3,60.183245941316784,
images/light_grey_box_with_cue,images/light_grey_box,images/light_grey_box,images/light_grey_box,images/light_grey_box_with_target,images/light_grey_box,0,0.1,0.25,0,93,93,44,,,,,,,,,,,,,214.48989486508071,None,214.48989486508071,None,214.48989486508071,None,215.50371986499522,None,215.50371986499522,None,215.50371986499522,None,0.05,0.2,215.6625627001049,215.80627442710102,215.6625627001049,215.80627442710102,215.6625627001049,215.80627442710102,space,0.23124525195453316,215.6625627001049,None,215.90768578602,None,,,ahilya,001,2020_Apr_17_2138,experiment,2020.1.3,60.183245941316784,
images/light_grey_box_with_cue,images/light_grey_box,images/light_grey_box,images/light_grey_box,images/light_grey_box_with_target,images/light_grey_box,0,0.05,0.2,0,94,94,21,,,,,,,,,,,,,216.4223379601026,None,216.4223379601026,None,216.4223379601026,None,217.43659049109556,None,217.43659049109556,None,217.43659049109556,None,0.0,0.15,217.59483295003884,None,217.59483295003884,None,217.59483295003884,None,space,0.21515476203057915,217.59483295003884,None,217.82253365509678,None,,,ahilya,001,2020_Apr_17_2138,experiment,2020.1.3,60.183245941316784,
images/light_grey_box,images/light_grey_box,images/light_grey_box_with_cue,images/light_grey_box,images/light_grey_box,images/light_grey_box_with_target,0,0.05,0.2,0,95,95,37,,,,,,,,,,,,,218.32229839405045,None,218.32229839405045,None,218.32229839405045,None,219.3359913120512,None,219.3359913120512,None,219.3359913120512,None,0.3,0.44999999999999996,219.62229269207455,None,219.62229269207455,None,219.62229269207455,None,space,0.03486663394141942,219.62229269207455,None,219.67170752806123,None,,,ahilya,001,2020_Apr_17_2138,experiment,2020.1.3,60.183245941316784,
images/light_grey_box_with_cue,images/light_grey_box,images/light_grey_box,images/light_grey_box,images/light_grey_box_with_target,images/light_grey_box,0,0.3,0.45,0,96,96,84,,,,,,,,,,,,,220.17239893507212,None,220.17239893507212,None,220.17239893507212,None,221.18944334599655,None,221.18944334599655,None,221.18944334599655,None,0.0,0.15,221.5043867690256,221.5043867690256,221.5043867690256,221.5043867690256,221.5043867690256,221.5043867690256,space,1.1386977570364252,221.5043867690256,None,222.65814322500955,None,,,ahilya,001,2020_Apr_17_2138,experiment,2020.1.3,60.183245941316784,
images/light_grey_box_with_cue,images/light_grey_box,images/light_grey_box,images/light_grey_box,images/light_grey_box,images/light_grey_box_with_target,0,0.0,0.15,0,97,97,7,,,,,,,,,,,,,223.17223972908687,None,223.17223972908687,None,223.17223972908687,None,224.1850584470667,None,224.1850584470667,None,224.1850584470667,None,0.5,0.65,224.42274416610599,224.47278392408043,224.42274416610599,224.47278392408043,224.42274416610599,224.47278392408043,space,0.15398790803737938,224.42274416610599,None,224.5910925680073,None,,,ahilya,001,2020_Apr_17_2138,experiment,2020.1.3,60.183245941316784,
images/light_grey_box_with_cue,images/light_grey_box,images/light_grey_box,images/light_grey_box,images/light_grey_box,images/light_grey_box_with_target,0,0.5,0.65,0,98,98,107,,,,,,,,,,,,,225.10606486303732,None,225.10606486303732,None,225.10606486303732,None,226.12098800903186,None,226.12098800903186,None,226.12098800903186,None,0.2,0.35,226.3384132180363,None,226.3384132180363,None,226.3384132180363,None,space,0.12063230702187866,226.3384132180363,None,226.47166266303975,None,,,ahilya,001,2020_Apr_17_2138,experiment,2020.1.3,60.183245941316784,
images/light_grey_box_with_cue,images/light_grey_box,images/light_grey_box,images/light_grey_box,images/light_grey_box_with_target,images/light_grey_box,0,0.05,0.2,0,99,99,22,,,,,,,,,,,,,226.9717260200996,None,226.9717260200996,None,226.9717260200996,None,227.9869278020924,None,227.9869278020924,None,227.9869278020924,None,0.2,0.35,228.18880437209737,None,228.18880437209737,None,228.18880437209737,None,space,0.054253751994110644,228.18880437209737,None,228.25667687610257,None,,,ahilya,001,2020_Apr_17_2138,experiment,2020.1.3,60.183245941316784,
images/light_grey_box,images/light_grey_box,images/light_grey_box_with_cue,images/light_grey_box,images/light_grey_box_with_target,images/light_grey_box,0,0.5,0.65,0,100,100,112,,,,,,,,,,,,,228.7561387240421,None,228.7561387240421,None,228.7561387240421,None,229.77064162609167,None,229.77064162609167,None,229.77064162609167,None,0.3,0.44999999999999996,230.0396003400674,None,230.0396003400674,None,230.0396003400674,None,space,0.0710755520267412,230.0396003400674,None,230.1231204890646,None,,,ahilya,001,2020_Apr_17_2138,experiment,2020.1.3,60.183245941316784,
images/light_grey_box,images/light_grey_box,images/light_grey_box,images/light_grey_box,images/light_grey_box_with_target,images/light_grey_box,0,0.3,0.45,0,101,101,93,,,,,,,,,,,,,230.62276062904857,None,230.62276062904857,None,230.62276062904857,None,231.63160661410075,None,231.63160661410075,None,231.63160661410075,None,0.0,0.15,231.87194536207244,232.02231824409682,231.87194536207244,232.02231824409682,231.87194536207244,232.02231824409682,space,0.319568314938806,231.87194536207244,None,232.20621319010388,None,,,ahilya,001,2020_Apr_17_2138,experiment,2020.1.3,60.183245941316784,
images/light_grey_box,images/light_grey_box,images/light_grey_box,images/light_grey_box,images/light_grey_box_with_target,images/light_grey_box,0,0.1,0.25,0,102,102,56,,,,,,,,,,,,,232.70560051803477,None,232.70560051803477,None,232.70560051803477,None,233.71528135507833,None,233.71528135507833,None,233.71528135507833,None,0.0,0.15,233.954986923025,234.1384165310301,233.954986923025,234.1384165310301,233.954986923025,234.1384165310301,space,0.32243962096981704,233.954986923025,None,234.29189763206523,None,,,ahilya,001,2020_Apr_17_2138,experiment,2020.1.3,60.183245941316784,
images/light_grey_box,images/light_grey_box,images/light_grey_box,images/light_grey_box,images/light_grey_box_with_target,images/light_grey_box,0,0.3,0.45,0,103,103,94,,,,,,,,,,,,,234.80543306504842,None,234.80543306504842,None,234.80543306504842,None,235.81328300305177,None,235.81328300305177,None,235.81328300305177,None,0.3,0.44999999999999996,235.97809581505135,236.23890664009377,235.97809581505135,236.23890664009377,235.97809581505135,236.23890664009377,space,0.31555463501717895,235.97809581505135,None,236.30757831805386,None,,,ahilya,001,2020_Apr_17_2138,experiment,2020.1.3,60.183245941316784,
images/light_grey_box_with_cue,images/light_grey_box,images/light_grey_box,images/light_grey_box,images/light_grey_box_with_target,images/light_grey_box,0,0.3,0.45,0,104,104,82,,,,,,,,,,,,,236.82204438501503,None,236.82204438501503,None,236.82204438501503,None,237.83639006700832,None,237.83639006700832,None,237.83639006700832,None,0.2,0.35,238.07214323803782,238.20460962306242,238.07214323803782,238.20460962306242,238.07214323803782,238.20460962306242,space,0.30619861208833754,238.07214323803782,None,238.3949051530799,None,,,ahilya,001,2020_Apr_17_2138,experiment,2020.1.3,60.183245941316784,
images/light_grey_box_with_cue,images/light_grey_box,images/light_grey_box,images/light_grey_box,images/light_grey_box_with_target,images/light_grey_box,0,0.5,0.65,0,105,105,103,,,,,,,,,,,,,238.90679687203374,None,238.90679687203374,None,238.90679687203374,None,239.92067099001724,None,239.92067099001724,None,239.92067099001724,None,0.05,0.2,240.1232018560404,240.223168705008,240.1232018560404,240.223168705008,240.1232018560404,240.223168705008,space,0.17068247008137405,240.1232018560404,None,240.30824503407348,None,,,ahilya,001,2020_Apr_17_2138,experiment,2020.1.3,60.183245941316784,
images/light_grey_box_with_cue,images/light_grey_box,images/light_grey_box,images/light_grey_box,images/light_grey_box,images/light_grey_box_with_target,0,0.3,0.45,0,106,106,87,,,,,,,,,,,,,240.8227906320244,None,240.8227906320244,None,240.8227906320244,None,241.83637014008127,None,241.83637014008127,None,241.83637014008127,None,0.05,0.2,242.10645115503576,242.10645115503576,242.10645115503576,242.10645115503576,242.10645115503576,242.10645115503576,space,0.15433182893320918,242.10645115503576,None,242.27378586900886,None,,,ahilya,001,2020_Apr_17_2138,experiment,2020.1.3,60.183245941316784,
images/light_grey_box,images/light_grey_box,images/light_grey_box,images/light_grey_box,images/light_grey_box_with_target,images/light_grey_box,0,0.5,0.65,0,107,107,113,,,,,,,,,,,,,242.7730329791084,None,242.7730329791084,None,242.7730329791084,None,243.78362742601894,None,243.78362742601894,None,243.78362742601894,None,0.3,0.44999999999999996,244.0563868971076,244.17310753301717,244.0563868971076,244.17310753301717,244.0563868971076,244.17310753301717,space,0.3204600140452385,244.0563868971076,None,244.3892210450722,None,,,ahilya,001,2020_Apr_17_2138,experiment,2020.1.3,60.183245941316784,
images/light_grey_box_with_cue,images/light_grey_box,images/light_grey_box,images/light_grey_box,images/light_grey_box_with_target,images/light_grey_box,0,0.5,0.65,0,108,108,102,,,,,,,,,,,,,244.90525836509187,None,244.90525836509187,None,244.90525836509187,None,245.91528803505935,None,245.91528803505935,None,245.91528803505935,None,0.0,0.15,246.12099328101613,246.2541357970331,246.12099328101613,246.2541357970331,246.12099328101613,246.2541357970331,space,0.30502930004149675,246.12099328101613,None,246.4389036661014,None,,,ahilya,001,2020_Apr_17_2138,experiment,2020.1.3,60.183245941316784,
images/light_grey_box,images/light_grey_box,images/light_grey_box_with_cue,images/light_grey_box_with_target,images/light_grey_box,images/light_grey_box,0,0.0,0.15,0,109,109,16,,,,,,,,,,,,,246.93843276100233,None,246.93843276100233,None,246.93843276100233,None,247.9519189200364,None,247.9519189200364,None,247.9519189200364,None,0.05,0.2,248.1715111020021,248.32195965503342,248.1715111020021,248.32195965503342,248.1715111020021,248.32195965503342,space,0.38782751199323684,248.1715111020021,None,248.57441092305817,None,,,ahilya,001,2020_Apr_17_2138,experiment,2020.1.3,60.183245941316784,
images/light_grey_box,images/light_grey_box,images/light_grey_box,images/light_grey_box,images/light_grey_box_with_target,images/light_grey_box,0,0.05,0.2,0,110,110,34,,,,,,,,,,,,,249.08876788499765,None,249.08876788499765,None,249.08876788499765,None,250.0968700280646,None,250.0968700280646,None,250.0968700280646,None,0.3,0.44999999999999996,250.27419975900557,250.3885142740328,250.27419975900557,250.3885142740328,250.27419975900557,250.3885142740328,space,0.3848864429164678,250.27419975900557,None,250.67318459402304,None,,,ahilya,001,2020_Apr_17_2138,experiment,2020.1.3,60.183245941316784,
images/light_grey_box_with_cue,images/light_grey_box,images/light_grey_box,images/light_grey_box,images/light_grey_box_with_target,images/light_grey_box,0,0.05,0.2,0,111,111,25,,,,,,,,,,,,,251.18885813106317,None,251.18885813106317,None,251.18885813106317,None,252.20163004903588,None,252.20163004903588,None,252.20163004903588,None,0.3,0.44999999999999996,252.40506063203793,None,252.40506063203793,None,252.40506063203793,None,space,0.13778430502861738,252.40506063203793,None,252.5570412829984,None,,,ahilya,001,2020_Apr_17_2138,experiment,2020.1.3,60.183245941316784,
images/light_grey_box_with_cue,images/light_grey_box,images/light_grey_box,images/light_grey_box,images/light_grey_box,images/light_grey_box,0,0.3,0.45,0,112,112,88,,,,,,,,,,,,,253.07201965199783,None,253.07201965199783,None,253.07201965199783,None,254.0868982000975,None,254.0868982000975,None,254.0868982000975,None,0.1,0.25,254.2301844120957,254.38846108305734,254.2301844120957,254.38846108305734,254.2301844120957,254.38846108305734,space,0.19563560606911778,254.2301844120957,None,254.44083211605903,None,,,ahilya,001,2020_Apr_17_2138,experiment,2020.1.3,60.183245941316784,
images/light_grey_box,images/light_grey_box,images/light_grey_box_with_cue,images/light_grey_box,images/light_grey_box_with_target,images/light_grey_box,0,0.05,0.2,0,113,113,30,,,,,,,,,,,,,254.95518683700357,None,254.95518683700357,None,254.95518683700357,None,255.9694958390901,None,255.9694958390901,None,255.9694958390901,None,0.05,0.2,256.1294445730746,256.30517749208957,256.1294445730746,256.30517749208957,256.1294445730746,256.30517749208957,space,0.2968167340150103,256.1294445730746,None,256.43864928605035,None,,,ahilya,001,2020_Apr_17_2138,experiment,2020.1.3,60.183245941316784,
images/light_grey_box_with_cue,images/light_grey_box,images/light_grey_box,images/light_grey_box,images/light_grey_box_with_target,images/light_grey_box,0,0.2,0.35,0,114,114,65,,,,,,,,,,,,,256.93840220500715,None,256.93840220500715,None,256.93840220500715,None,257.9517374821007,None,257.9517374821007,None,257.9517374821007,None,0.5,0.65,258.15488317306153,258.2884366440121,258.15488317306153,258.2884366440121,258.15488317306153,258.2884366440121,space,0.3222619069274515,258.15488317306153,None,258.4900363300694,None,,,ahilya,001,2020_Apr_17_2138,experiment,2020.1.3,60.183245941316784,
images/light_grey_box_with_cue,images/light_grey_box,images/light_grey_box,images/light_grey_box,images/light_grey_box_with_target,images/light_grey_box,0,0.3,0.45,0,115,115,83,,,,,,,,,,,,,259.0051333589945,None,259.0051333589945,None,259.0051333589945,None,260.0193135800073,None,260.0193135800073,None,260.0193135800073,None,0.1,0.25,260.2049217490712,260.30512516910676,260.2049217490712,260.30512516910676,260.2049217490712,260.30512516910676,space,0.15447255806066096,260.2049217490712,None,260.37351764109917,None,,,ahilya,001,2020_Apr_17_2138,experiment,2020.1.3,60.183245941316784,
images/light_grey_box,images/light_grey_box,images/light_grey_box_with_cue,images/light_grey_box,images/light_grey_box,images/light_grey_box,0,0.05,0.2,0,116,116,38,,,,,,,,,,,,,260.8883656040998,None,260.8883656040998,None,260.8883656040998,None,261.901744524017,None,261.901744524017,None,261.901744524017,None,0.05,0.2,262.0461800120538,262.2045191790676,262.0461800120538,262.2045191790676,262.0461800120538,262.2045191790676,space,0.2302552650216967,262.0461800120538,None,262.28996461909264,None,,,ahilya,001,2020_Apr_17_2138,experiment,2020.1.3,60.183245941316784,
images/light_grey_box_with_cue,images/light_grey_box,images/light_grey_box,images/light_grey_box,images/light_grey_box,images/light_grey_box_with_target,0,0.1,0.25,0,117,117,47,,,,,,,,,,,,,262.80502345599234,None,262.80502345599234,None,262.80502345599234,None,263.8115907200845,None,263.8115907200845,None,263.8115907200845,None,0.5,0.65,263.9907004450215,264.17176866007503,263.9907004450215,264.17176866007503,263.9907004450215,264.17176866007503,space,0.2020243420265615,263.9907004450215,None,264.2057504490949,None,,,ahilya,001,2020_Apr_17_2138,experiment,2020.1.3,60.183245941316784,
images/light_grey_box,images/light_grey_box,images/light_grey_box_with_cue,images/light_grey_box,images/light_grey_box_with_target,images/light_grey_box,0,0.1,0.25,0,118,118,51,,,,,,,,,,,,,264.72135185601655,None,264.72135185601655,None,264.72135185601655,None,265.73446561105084,None,265.73446561105084,None,265.73446561105084,None,0.05,0.2,265.9379460141063,None,265.9379460141063,None,265.9379460141063,None,space,0.1425419490551576,265.9379460141063,None,266.09343847900163,None,,,ahilya,001,2020_Apr_17_2138,experiment,2020.1.3,60.183245941316784,
images/light_grey_box,images/light_grey_box,images/light_grey_box_with_cue,images/light_grey_box,images/light_grey_box_with_target,images/light_grey_box,0,0.3,0.45,0,119,119,90,,,,,,,,,,,,,266.6065123800654,None,266.6065123800654,None,266.6065123800654,None,267.6210546710063,None,267.6210546710063,None,267.6210546710063,None,0.5,0.65,267.85605791409034,267.90608609304763,267.85605791409034,267.90608609304763,267.85605791409034,267.90608609304763,space,0.054343222989700735,267.85605791409034,None,267.9243195770541,None,,,ahilya,001,2020_Apr_17_2138,experiment,2020.1.3,60.183245941316784,
,,,,,,,,,,,,,,,,,,,,,,,,,,,,,,,,,,,,,,,,,,,,,,,,,,,268.43947219499387,None,,,,,,,
