image_cue_1,image_cue_2,image_cue_3,image_target_1,image_target_2,image_target_3,targetStart,startTime,endTime,trials.thisRepN,trials.thisTrialN,trials.thisN,trials.thisIndex,textWelcome.started,textWelcome.stopped,keyWelcome.keys,keyWelcome.rt,keyWelcome.started,keyWelcome.stopped,textStart.started,textStart.stopped,keyStart.keys,keyStart.rt,keyStart.started,keyStart.stopped,imageTrailBefore_1.started,imageTrailBefore_1.stopped,imageTrialBefore_2.started,imageTrialBefore_2.stopped,imageTrialBefore_3.started,imageTrialBefore_3.stopped,imageTrialCue_1.started,imageTrialCue_1.stopped,imageTrialCue_2.started,imageTrialCue_2.stopped,imageTrialCue_3.started,imageTrialCue_3.stopped,TrialSceenTargetStart,TrialSceenTargetEnd,imageTrialTarget_1.started,imageTrialTarget_1.stopped,imageTrialTarget_2.started,imageTrialTarget_2.stopped,imageTrialTarget_3.started,imageTrialTarget_3.stopped,keyResponse.keys,keyResponse.rt,keyResponse.started,keyResponse.stopped,textBlank500.started,textBlank500.stopped,textEndSceen.started,textEndSceen.stopped,participant,session,date,expName,psychopyVersion,frameRate,
,,,,,,,,,,,,,6.618109399918467,None,space,3.6842935000313446,6.618109399918467,None,,,,,,,,,,,,,,,,,,,,,,,,,,,,,,,,,,,akash,001,2020_Apr_18_2103,experiment,2020.1.3,59.98749862183085,
,,,,,,,,,,,,,,,,,,,10.31861439999193,None,space,1.4669965000357479,10.31861439999193,None,,,,,,,,,,,,,,,,,,,,,,,,,,,,,akash,001,2020_Apr_18_2103,experiment,2020.1.3,59.98749862183085,
images/light_grey_box_with_cue,images/light_grey_box,images/light_grey_box,images/light_grey_box,images/light_grey_box_with_target,images/light_grey_box,0,0.2,0.35,0,0,0,63,,,,,,,,,,,,,11.83536429994274,None,11.83536429994274,None,11.83536429994274,None,12.868741599959321,None,12.868741599959321,None,12.868741599959321,None,0.5,0.65,13.002172100008465,13.202126699965447,13.002172100008465,13.202126699965447,13.002172100008465,13.202126699965447,space,0.23357839998789132,13.002172100008465,None,13.252115999930538,None,,,akash,001,2020_Apr_18_2103,experiment,2020.1.3,59.98749862183085,
images/light_grey_box,images/light_grey_box,images/light_grey_box,images/light_grey_box,images/light_grey_box_with_target,images/light_grey_box,0,0.05,0.2,0,1,1,33,,,,,,,,,,,,,13.752160499920137,None,13.752160499920137,None,13.752160499920137,None,14.752163999946788,None,14.752163999946788,None,14.752163999946788,None,0.3,0.44999999999999996,14.952250099973753,15.068938300013542,14.952250099973753,15.068938300013542,14.952250099973753,15.068938300013542,space,0.1503692000405863,14.952250099973753,None,15.118917600018904,None,,,akash,001,2020_Apr_18_2103,experiment,2020.1.3,59.98749862183085,
images/light_grey_box_with_cue,images/light_grey_box,images/light_grey_box,images/light_grey_box,images/light_grey_box_with_target,images/light_grey_box,0,0.2,0.35,0,2,2,65,,,,,,,,,,,,,15.618965999921784,None,15.618965999921784,None,15.618965999921784,None,16.619089699932374,None,16.619089699932374,None,16.619089699932374,None,0.0,0.15,16.835737199988216,16.952414999948815,16.835737199988216,16.952414999948815,16.835737199988216,16.952414999948815,space,0.133740600082092,16.835737199988216,None,16.98575519991573,None,,,akash,001,2020_Apr_18_2103,experiment,2020.1.3,59.98749862183085,
images/light_grey_box_with_cue,images/light_grey_box,images/light_grey_box,images/light_grey_box,images/light_grey_box,images/light_grey_box,0,0.2,0.35,0,3,3,68,,,,,,,,,,,,,17.48579049995169,None,17.48579049995169,None,17.48579049995169,None,18.485897699953057,None,18.485897699953057,None,18.485897699953057,None,0.0,0.15,18.669171200017445,18.785920699941926,18.669171200017445,18.785920699941926,18.669171200017445,18.785920699941926,space,3.3672446999698877,18.669171200017445,None,22.052814799943008,None,,,akash,001,2020_Apr_18_2103,experiment,2020.1.3,59.98749862183085,
images/light_grey_box,images/light_grey_box,images/light_grey_box_with_cue,images/light_grey_box,images/light_grey_box_with_target,images/light_grey_box,0,0.3,0.45,0,4,4,91,,,,,,,,,,,,,22.552869500010274,None,22.552869500010274,None,22.552869500010274,None,23.552963699912652,None,23.552963699912652,None,23.552963699912652,None,0.3,0.44999999999999996,23.702960799913853,23.886273399926722,23.702960799913853,23.886273399926722,23.702960799913853,23.886273399926722,space,2.3172461999347433,23.702960799913853,None,26.036426999955438,None,,,akash,001,2020_Apr_18_2103,experiment,2020.1.3,59.98749862183085,
images/light_grey_box_with_cue,images/light_grey_box,images/light_grey_box,images/light_grey_box_with_target,images/light_grey_box,images/light_grey_box,0,0.1,0.25,0,5,5,46,,,,,,,,,,,,,26.536467799916863,None,26.536467799916863,None,26.536467799916863,None,27.536506699980237,None,27.536506699980237,None,27.536506699980237,None,0.05,0.2,27.753249499946833,None,27.753249499946833,None,27.753249499946833,None,space,0.06703249993734062,27.753249499946833,None,27.8365807000082,None,,,akash,001,2020_Apr_18_2103,experiment,2020.1.3,59.98749862183085,
images/light_grey_box,images/light_grey_box,images/light_grey_box_with_cue,images/light_grey_box,images/light_grey_box,images/light_grey_box,0,0.1,0.25,0,6,6,58,,,,,,,,,,,,,28.336622599978,None,28.336622599978,None,28.336622599978,None,29.336703400011174,None,29.336703400011174,None,29.336703400011174,None,0.5,0.65,29.50334669998847,None,29.50334669998847,None,29.50334669998847,None,space,0.0838673000689596,29.50334669998847,None,29.603379699983634,None,,,akash,001,2020_Apr_18_2103,experiment,2020.1.3,59.98749862183085,
images/light_grey_box,images/light_grey_box,images/light_grey_box,images/light_grey_box,images/light_grey_box_with_target,images/light_grey_box,0,0.05,0.2,0,7,7,36,,,,,,,,,,,,,30.10341250000056,None,30.10341250000056,None,30.10341250000056,None,31.103489800007083,None,31.103489800007083,None,31.103489800007083,None,0.05,0.2,31.253515199990943,None,31.253515199990943,None,31.253515199990943,None,space,0.06698230002075434,31.253515199990943,None,31.336836999980733,None,,,akash,001,2020_Apr_18_2103,experiment,2020.1.3,59.98749862183085,
images/light_grey_box_with_cue,images/light_grey_box,images/light_grey_box,images/light_grey_box,images/light_grey_box_with_target,images/light_grey_box,0,0.5,0.65,0,8,8,104,,,,,,,,,,,,,31.836880999966525,None,31.836880999966525,None,31.836880999966525,None,32.83695419994183,None,32.83695419994183,None,32.83695419994183,None,0.05,0.2,32.987003799993545,None,32.987003799993545,None,32.987003799993545,None,space,0.06724530004430562,32.987003799993545,None,33.07026920001954,None,,,akash,001,2020_Apr_18_2103,experiment,2020.1.3,59.98749862183085,
images/light_grey_box,images/light_grey_box,images/light_grey_box_with_cue,images/light_grey_box,images/light_grey_box_with_target,images/light_grey_box,0,0.05,0.2,0,9,9,30,,,,,,,,,,,,,33.570346600026824,None,33.570346600026824,None,33.570346600026824,None,34.57048599992413,None,34.57048599992413,None,34.57048599992413,None,0.0,0.15,34.720350399962626,34.88710980000906,34.720350399962626,34.88710980000906,34.720350399962626,34.88710980000906,space,0.16704490000847727,34.720350399962626,None,34.90378419996705,None,,,akash,001,2020_Apr_18_2103,experiment,2020.1.3,59.98749862183085,
images/light_grey_box_with_cue,images/light_grey_box,images/light_grey_box,images/light_grey_box,images/light_grey_box_with_target,images/light_grey_box,0,0.2,0.35,0,10,10,61,,,,,,,,,,,,,35.403822999913245,None,35.403822999913245,None,35.403822999913245,None,36.40390259993728,None,36.40390259993728,None,36.40390259993728,None,0.2,0.35,36.55389199999627,None,36.55389199999627,None,36.55389199999627,None,space,0.08363999996799976,36.55389199999627,None,36.65395860001445,None,,,akash,001,2020_Apr_18_2103,experiment,2020.1.3,59.98749862183085,
images/light_grey_box,images/light_grey_box,images/light_grey_box_with_cue,images/light_grey_box,images/light_grey_box,images/light_grey_box,0,0.5,0.65,0,11,11,118,,,,,,,,,,,,,37.153943500015885,None,37.153943500015885,None,37.153943500015885,None,38.17070299992338,None,38.17070299992338,None,38.17070299992338,None,0.3,0.44999999999999996,38.404059599968605,38.47071569995023,38.404059599968605,38.47071569995023,38.404059599968605,38.47071569995023,space,1.1838172000134364,38.404059599968605,None,39.60414970002603,None,,,akash,001,2020_Apr_18_2103,experiment,2020.1.3,59.98749862183085,
images/light_grey_box_with_cue,images/light_grey_box,images/light_grey_box,images/light_grey_box,images/light_grey_box_with_target,images/light_grey_box,0,0.0,0.15,0,12,12,5,,,,,,,,,,,,,40.10409609996714,None,40.10409609996714,None,40.10409609996714,None,41.10431720002089,None,41.10431720002089,None,41.10431720002089,None,0.3,0.44999999999999996,41.28761419991497,None,41.28761419991497,None,41.28761419991497,None,space,0.050586999976076186,41.28761419991497,None,41.35427529993467,None,,,akash,001,2020_Apr_18_2103,experiment,2020.1.3,59.98749862183085,
images/light_grey_box_with_cue,images/light_grey_box,images/light_grey_box,images/light_grey_box,images/light_grey_box_with_target,images/light_grey_box,0,0.1,0.25,0,13,13,45,,,,,,,,,,,,,41.8543151000049,None,41.8543151000049,None,41.8543151000049,None,42.854349999921396,None,42.854349999921396,None,42.854349999921396,None,0.05,0.2,43.104430299950764,43.2044277000241,43.104430299950764,43.2044277000241,43.104430299950764,43.2044277000241,space,0.8837169000180438,43.104430299950764,None,44.004473999957554,None,,,akash,001,2020_Apr_18_2103,experiment,2020.1.3,59.98749862183085,
images/light_grey_box,images/light_grey_box,images/light_grey_box,images/light_grey_box,images/light_grey_box_with_target,images/light_grey_box,0,0.2,0.35,0,14,14,74,,,,,,,,,,,,,44.50452670000959,None,44.50452670000959,None,44.50452670000959,None,45.504631699994206,None,45.504631699994206,None,45.504631699994206,None,0.05,0.2,45.754582899971865,None,45.754582899971865,None,45.754582899971865,None,space,0.10037930007092655,45.754582899971865,None,45.871267599985,None,,,akash,001,2020_Apr_18_2103,experiment,2020.1.3,59.98749862183085,
images/light_grey_box,images/light_grey_box,images/light_grey_box,images/light_grey_box,images/light_grey_box_with_target,images/light_grey_box,0,0.2,0.35,0,15,15,76,,,,,,,,,,,,,46.37133939994965,None,46.37133939994965,None,46.37133939994965,None,47.37131099996623,None,47.37131099996623,None,47.37131099996623,None,0.05,0.2,47.62138409994077,47.671413799980655,47.62138409994077,47.671413799980655,47.62138409994077,47.671413799980655,space,0.084570899954997,47.62138409994077,None,47.72141819994431,None,,,akash,001,2020_Apr_18_2103,experiment,2020.1.3,59.98749862183085,
images/light_grey_box_with_cue,images/light_grey_box,images/light_grey_box,images/light_grey_box,images/light_grey_box,images/light_grey_box_with_target,0,0.05,0.2,0,16,16,27,,,,,,,,,,,,,48.221469299984165,None,48.221469299984165,None,48.221469299984165,None,49.22154880000744,None,49.22154880000744,None,49.22154880000744,None,0.05,0.2,49.43822709994856,49.521572900004685,49.43822709994856,49.521572900004685,49.43822709994856,49.521572900004685,space,0.13365109998267144,49.43822709994856,None,49.58820619992912,None,,,akash,001,2020_Apr_18_2103,experiment,2020.1.3,59.98749862183085,
images/light_grey_box_with_cue,images/light_grey_box,images/light_grey_box,images/light_grey_box,images/light_grey_box_with_target,images/light_grey_box,0,0.2,0.35,0,17,17,64,,,,,,,,,,,,,50.08827539999038,None,50.08827539999038,None,50.08827539999038,None,51.0883888999233,None,51.0883888999233,None,51.0883888999233,None,0.05,0.2,51.288366799941286,None,51.288366799941286,None,51.288366799941286,None,space,0.13373909995425493,51.288366799941286,None,51.43839909997769,None,,,akash,001,2020_Apr_18_2103,experiment,2020.1.3,59.98749862183085,
images/light_grey_box,images/light_grey_box,images/light_grey_box_with_cue,images/light_grey_box,images/light_grey_box_with_target,images/light_grey_box,0,0.05,0.2,0,18,18,31,,,,,,,,,,,,,51.938408299931325,None,51.938408299931325,None,51.938408299931325,None,52.93847349996213,None,52.93847349996213,None,52.93847349996213,None,0.05,0.2,53.155166600015946,53.25518219999503,53.155166600015946,53.25518219999503,53.155166600015946,53.25518219999503,space,1.101185700041242,53.155166600015946,None,54.27192929992452,None,,,akash,001,2020_Apr_18_2103,experiment,2020.1.3,59.98749862183085,
images/light_grey_box,images/light_grey_box,images/light_grey_box,images/light_grey_box,images/light_grey_box_with_target,images/light_grey_box,0,0.5,0.65,0,19,19,115,,,,,,,,,,,,,54.77195309998933,None,54.77195309998933,None,54.77195309998933,None,55.77204049995635,None,55.77204049995635,None,55.77204049995635,None,0.0,0.15,56.0053959999932,None,56.0053959999932,None,56.0053959999932,None,space,0.016997499973513186,56.0053959999932,None,56.038710699998774,None,,,akash,001,2020_Apr_18_2103,experiment,2020.1.3,59.98749862183085,
images/light_grey_box,images/light_grey_box,images/light_grey_box_with_cue,images/light_grey_box,images/light_grey_box_with_target,images/light_grey_box,0,0.5,0.65,0,20,20,111,,,,,,,,,,,,,56.5387748000212,None,56.5387748000212,None,56.5387748000212,None,57.538881800021045,None,57.538881800021045,None,57.538881800021045,None,0.3,0.44999999999999996,57.75557079992723,None,57.75557079992723,None,57.75557079992723,None,space,0.06709739996585995,57.75557079992723,None,57.8389659000095,None,,,akash,001,2020_Apr_18_2103,experiment,2020.1.3,59.98749862183085,
images/light_grey_box_with_cue,images/light_grey_box,images/light_grey_box,images/light_grey_box,images/light_grey_box_with_target,images/light_grey_box,0,0.3,0.45,0,21,21,84,,,,,,,,,,,,,58.33889399992768,None,58.33889399992768,None,58.33889399992768,None,59.338957499945536,None,59.338957499945536,None,59.338957499945536,None,0.0,0.15,59.57233300001826,None,59.57233300001826,None,59.57233300001826,None,space,0.03382030001375824,59.57233300001826,None,59.622342100017704,None,,,akash,001,2020_Apr_18_2103,experiment,2020.1.3,59.98749862183085,
images/light_grey_box_with_cue,images/light_grey_box,images/light_grey_box,images/light_grey_box,images/light_grey_box_with_target,images/light_grey_box,0,0.05,0.2,0,22,22,21,,,,,,,,,,,,,60.12236889998894,None,60.12236889998894,None,60.12236889998894,None,61.122445399989374,None,61.122445399989374,None,61.122445399989374,None,0.0,0.15,61.30578830000013,61.439148299978115,61.30578830000013,61.439148299978115,61.30578830000013,61.439148299978115,space,0.1336581000359729,61.30578830000013,None,61.455804299912415,None,,,akash,001,2020_Apr_18_2103,experiment,2020.1.3,59.98749862183085,
images/light_grey_box_with_cue,images/light_grey_box,images/light_grey_box,images/light_grey_box,images/light_grey_box_with_target,images/light_grey_box,0,0.5,0.65,0,23,23,100,,,,,,,,,,,,,61.95584750000853,None,61.95584750000853,None,61.95584750000853,None,62.95595159998629,None,62.95595159998629,None,62.95595159998629,None,0.5,0.65,63.139265200006776,63.239257699926384,63.139265200006776,63.239257699926384,63.139265200006776,63.239257699926384,space,0.15030410001054406,63.139265200006776,None,63.30593669996597,None,,,akash,001,2020_Apr_18_2103,experiment,2020.1.3,59.98749862183085,
images/light_grey_box,images/light_grey_box,images/light_grey_box_with_cue,images/light_grey_box,images/light_grey_box,images/light_grey_box_with_target,0,0.1,0.25,0,24,24,57,,,,,,,,,,,,,63.8059779999312,None,63.8059779999312,None,63.8059779999312,None,64.80599109991454,None,64.80599109991454,None,64.80599109991454,None,0.3,0.44999999999999996,64.97275840002112,None,64.97275840002112,None,64.97275840002112,None,space,0.08359389996621758,64.97275840002112,None,65.0727475999156,None,,,akash,001,2020_Apr_18_2103,experiment,2020.1.3,59.98749862183085,
images/light_grey_box,images/light_grey_box,images/light_grey_box_with_cue,images/light_grey_box,images/light_grey_box,images/light_grey_box,0,0.0,0.15,0,25,25,18,,,,,,,,,,,,,65.57273919996805,None,65.57273919996805,None,65.57273919996805,None,66.57286780001596,None,66.57286780001596,None,66.57286780001596,None,0.2,0.35,66.73953519994393,None,66.73953519994393,None,66.73953519994393,None,space,0.1336794999660924,66.73953519994393,None,66.88952770002652,None,,,akash,001,2020_Apr_18_2103,experiment,2020.1.3,59.98749862183085,
images/light_grey_box,images/light_grey_box,images/light_grey_box_with_cue,images/light_grey_box,images/light_grey_box,images/light_grey_box_with_target,0,0.2,0.35,0,26,26,77,,,,,,,,,,,,,67.38959169993177,None,67.38959169993177,None,67.38959169993177,None,68.38970139995217,None,68.38970139995217,None,68.38970139995217,None,0.05,0.2,68.60636759991758,68.68973059998825,68.60636759991758,68.68973059998825,68.60636759991758,68.68973059998825,space,0.8004161000717431,68.60636759991758,None,69.42307999997865,None,,,akash,001,2020_Apr_18_2103,experiment,2020.1.3,59.98749862183085,
images/light_grey_box,images/light_grey_box,images/light_grey_box,images/light_grey_box,images/light_grey_box_with_target,images/light_grey_box,0,0.1,0.25,0,27,27,54,,,,,,,,,,,,,69.92312559997663,None,69.92312559997663,None,69.92312559997663,None,70.92319789994508,None,70.92319789994508,None,70.92319789994508,None,0.5,0.65,71.12312879995443,None,71.12312879995443,None,71.12312879995443,None,space,0.10041619988624007,71.12312879995443,None,71.23987379996106,None,,,akash,001,2020_Apr_18_2103,experiment,2020.1.3,59.98749862183085,
images/light_grey_box_with_cue,images/light_grey_box,images/light_grey_box,images/light_grey_box_with_target,images/light_grey_box,images/light_grey_box,0,0.05,0.2,0,28,28,26,,,,,,,,,,,,,71.73993079992943,None,71.73993079992943,None,71.73993079992943,None,72.73995540000033,None,72.73995540000033,None,72.73995540000033,None,0.3,0.44999999999999996,72.90668050001841,None,72.90668050001841,None,72.90668050001841,None,space,0.10087810002733022,72.90668050001841,None,73.02336049999576,None,,,akash,001,2020_Apr_18_2103,experiment,2020.1.3,59.98749862183085,
images/light_grey_box_with_cue,images/light_grey_box,images/light_grey_box,images/light_grey_box_with_target,images/light_grey_box,images/light_grey_box,0,0.0,0.15,0,29,29,6,,,,,,,,,,,,,73.52338319993578,None,73.52338319993578,None,73.52338319993578,None,74.52342809992842,None,74.52342809992842,None,74.52342809992842,None,0.05,0.2,74.67344479996245,None,74.67344479996245,None,74.67344479996245,None,space,0.11698960000649095,74.67344479996245,None,74.80684340000153,None,,,akash,001,2020_Apr_18_2103,experiment,2020.1.3,59.98749862183085,
images/light_grey_box_with_cue,images/light_grey_box,images/light_grey_box,images/light_grey_box,images/light_grey_box_with_target,images/light_grey_box,0,0.1,0.25,0,30,30,41,,,,,,,,,,,,,75.3068608000176,None,75.3068608000176,None,75.3068608000176,None,76.30697499995586,None,76.30697499995586,None,76.30697499995586,None,0.3,0.44999999999999996,76.45694369997364,None,76.45694369997364,None,76.45694369997364,None,space,0.050309799960814416,76.45694369997364,None,76.52361889998429,None,,,akash,001,2020_Apr_18_2103,experiment,2020.1.3,59.98749862183085,
images/light_grey_box,images/light_grey_box,images/light_grey_box_with_cue,images/light_grey_box,images/light_grey_box_with_target,images/light_grey_box,0,0.2,0.35,0,31,31,72,,,,,,,,,,,,,77.02366139995866,None,77.02366139995866,None,77.02366139995866,None,78.02380109997466,None,78.02380109997466,None,78.02380109997466,None,0.3,0.44999999999999996,78.20707399991807,None,78.20707399991807,None,78.20707399991807,None,space,0.033949899952858686,78.20707399991807,None,78.2570758999791,None,,,akash,001,2020_Apr_18_2103,experiment,2020.1.3,59.98749862183085,
images/light_grey_box,images/light_grey_box,images/light_grey_box_with_cue,images/light_grey_box,images/light_grey_box,images/light_grey_box_with_target,0,0.0,0.15,0,32,32,17,,,,,,,,,,,,,78.7571411000099,None,78.7571411000099,None,78.7571411000099,None,79.75715620000847,None,79.75715620000847,None,79.75715620000847,None,0.0,0.15,79.9738760999171,80.04055959999096,79.9738760999171,80.04055959999096,79.9738760999171,80.04055959999096,space,0.950446099974215,79.9738760999171,None,80.9406055000145,None,,,akash,001,2020_Apr_18_2103,experiment,2020.1.3,59.98749862183085,
images/light_grey_box_with_cue,images/light_grey_box,images/light_grey_box,images/light_grey_box,images/light_grey_box_with_target,images/light_grey_box,0,0.0,0.15,0,33,33,4,,,,,,,,,,,,,81.44065449992195,None,81.44065449992195,None,81.44065449992195,None,82.44074300001375,None,82.44074300001375,None,82.44074300001375,None,0.0,0.15,82.67411359993275,None,82.67411359993275,None,82.67411359993275,None,space,0.03387719998136163,82.67411359993275,None,82.72410489991307,None,,,akash,001,2020_Apr_18_2103,experiment,2020.1.3,59.98749862183085,
images/light_grey_box_with_cue,images/light_grey_box,images/light_grey_box,images/light_grey_box,images/light_grey_box_with_target,images/light_grey_box,0,0.2,0.35,0,34,34,62,,,,,,,,,,,,,83.22410440002568,None,83.22410440002568,None,83.22410440002568,None,84.22424519993365,None,84.22424519993365,None,84.22424519993365,None,0.0,0.15,84.37421149993315,None,84.37421149993315,None,84.37421149993315,None,space,0.11701420007739216,84.37421149993315,None,84.50754439993761,None,,,akash,001,2020_Apr_18_2103,experiment,2020.1.3,59.98749862183085,
images/light_grey_box,images/light_grey_box,images/light_grey_box_with_cue,images/light_grey_box,images/light_grey_box,images/light_grey_box,0,0.3,0.45,0,35,35,99,,,,,,,,,,,,,85.00759209995158,None,85.00759209995158,None,85.00759209995158,None,86.00767479999922,None,86.00767479999922,None,86.00767479999922,None,0.0,0.15,86.17434689996298,None,86.17434689996298,None,86.17434689996298,None,space,0.05026550008915365,86.17434689996298,None,86.24101709993556,None,,,akash,001,2020_Apr_18_2103,experiment,2020.1.3,59.98749862183085,
images/light_grey_box,images/light_grey_box,images/light_grey_box_with_cue,images/light_grey_box,images/light_grey_box,images/light_grey_box,0,0.1,0.25,0,36,36,59,,,,,,,,,,,,,86.74112030002289,None,86.74112030002289,None,86.74112030002289,None,87.74113169999328,None,87.74113169999328,None,87.74113169999328,None,0.2,0.35,87.92448950000107,88.05783059995156,87.92448950000107,88.05783059995156,87.92448950000107,88.05783059995156,space,0.18364329996984452,87.92448950000107,None,88.1245039999485,None,,,akash,001,2020_Apr_18_2103,experiment,2020.1.3,59.98749862183085,
images/light_grey_box,images/light_grey_box,images/light_grey_box_with_cue,images/light_grey_box,images/light_grey_box_with_target,images/light_grey_box,0,0.0,0.15,0,37,37,10,,,,,,,,,,,,,88.62452199996915,None,88.62452199996915,None,88.62452199996915,None,89.62460089998785,None,89.62460089998785,None,89.62460089998785,None,0.1,0.25,89.87463109998498,None,89.87463109998498,None,89.87463109998498,None,space,0.10031390003859997,89.87463109998498,None,89.991310399957,None,,,akash,001,2020_Apr_18_2103,experiment,2020.1.3,59.98749862183085,
images/light_grey_box,images/light_grey_box,images/light_grey_box_with_cue,images/light_grey_box,images/light_grey_box_with_target,images/light_grey_box,0,0.3,0.45,0,38,38,90,,,,,,,,,,,,,90.49144539993722,None,90.49144539993722,None,90.49144539993722,None,91.4914221999934,None,91.4914221999934,None,91.4914221999934,None,0.05,0.2,91.64147439994849,None,91.64147439994849,None,91.64147439994849,None,space,0.21697920002043247,91.64147439994849,None,91.87478600000031,None,,,akash,001,2020_Apr_18_2103,experiment,2020.1.3,59.98749862183085,
images/light_grey_box,images/light_grey_box,images/light_grey_box_with_cue,images/light_grey_box,images/light_grey_box_with_target,images/light_grey_box,0,0.1,0.25,0,39,39,50,,,,,,,,,,,,,92.37481259997003,None,92.37481259997003,None,92.37481259997003,None,93.37488959997427,None,93.37488959997427,None,93.37488959997427,None,0.5,0.65,93.55824769998435,93.65826820000075,93.55824769998435,93.65826820000075,93.55824769998435,93.65826820000075,space,0.16702920000534505,93.55824769998435,None,93.7415932000149,None,,,akash,001,2020_Apr_18_2103,experiment,2020.1.3,59.98749862183085,
images/light_grey_box,images/light_grey_box,images/light_grey_box_with_cue,images/light_grey_box,images/light_grey_box,images/light_grey_box_with_target,0,0.3,0.45,0,40,40,97,,,,,,,,,,,,,94.24163840000983,None,94.24163840000983,None,94.24163840000983,None,95.2416993000079,None,95.2416993000079,None,95.2416993000079,None,0.3,0.44999999999999996,95.44171549996827,95.55840679991525,95.44171549996827,95.55840679991525,95.44171549996827,95.55840679991525,space,0.15030850004404783,95.44171549996827,None,95.60842900001444,None,,,akash,001,2020_Apr_18_2103,experiment,2020.1.3,59.98749862183085,
images/light_grey_box,images/light_grey_box,images/light_grey_box_with_cue,images/light_grey_box,images/light_grey_box_with_target,images/light_grey_box,0,0.1,0.25,0,41,41,51,,,,,,,,,,,,,96.10843989998102,None,96.10843989998102,None,96.10843989998102,None,97.10850580001716,None,97.10850580001716,None,97.10850580001716,None,0.0,0.15,97.27519940002821,97.40852739999536,97.27519940002821,97.40852739999536,97.27519940002821,97.40852739999536,space,0.13389639998786151,97.27519940002821,None,97.42521449993365,None,,,akash,001,2020_Apr_18_2103,experiment,2020.1.3,59.98749862183085,
images/light_grey_box,images/light_grey_box,images/light_grey_box_with_cue,images/light_grey_box,images/light_grey_box,images/light_grey_box_with_target,0,0.05,0.2,0,42,42,37,,,,,,,,,,,,,97.92526259995066,None,97.92526259995066,None,97.92526259995066,None,98.92532939999364,None,98.92532939999364,None,98.92532939999364,None,0.0,0.15,99.09199490002356,99.27533079998102,99.09199490002356,99.27533079998102,99.09199490002356,99.27533079998102,space,0.18361239996738732,99.09199490002356,None,99.29201849992387,None,,,akash,001,2020_Apr_18_2103,experiment,2020.1.3,59.98749862183085,
images/light_grey_box,images/light_grey_box,images/light_grey_box,images/light_grey_box,images/light_grey_box_with_target,images/light_grey_box,0,0.05,0.2,0,43,43,34,,,,,,,,,,,,,99.79205799999181,None,99.79205799999181,None,99.79205799999181,None,100.7921433999436,None,100.7921433999436,None,100.7921433999436,None,0.1,0.25,100.97547850001138,101.14215789991431,100.97547850001138,101.14215789991431,100.97547850001138,101.14215789991431,space,0.16695079999044538,100.97547850001138,None,101.15882479993161,None,,,akash,001,2020_Apr_18_2103,experiment,2020.1.3,59.98749862183085,
images/light_grey_box_with_cue,images/light_grey_box,images/light_grey_box,images/light_grey_box,images/light_grey_box_with_target,images/light_grey_box,0,0.05,0.2,0,44,44,22,,,,,,,,,,,,,101.65886590001173,None,101.65886590001173,None,101.65886590001173,None,102.6589836999774,None,102.6589836999774,None,102.6589836999774,None,0.3,0.44999999999999996,102.8256516000256,None,102.8256516000256,None,102.8256516000256,None,space,0.133619699976407,102.8256516000256,None,102.97563100000843,None,,,akash,001,2020_Apr_18_2103,experiment,2020.1.3,59.98749862183085,
images/light_grey_box_with_cue,images/light_grey_box,images/light_grey_box,images/light_grey_box,images/light_grey_box_with_target,images/light_grey_box,0,0.0,0.15,0,45,45,2,,,,,,,,,,,,,103.47568129992578,None,103.47568129992578,None,103.47568129992578,None,104.4757329999702,None,104.4757329999702,None,104.4757329999702,None,0.0,0.15,104.65909630001988,None,104.65909630001988,None,104.65909630001988,None,space,0.13374259998090565,104.65909630001988,None,104.80911499995273,None,,,akash,001,2020_Apr_18_2103,experiment,2020.1.3,59.98749862183085,
images/light_grey_box,images/light_grey_box,images/light_grey_box_with_cue,images/light_grey_box,images/light_grey_box_with_target,images/light_grey_box,0,0.2,0.35,0,46,46,71,,,,,,,,,,,,,105.30914349993691,None,105.30914349993691,None,105.30914349993691,None,106.30926170002203,None,106.30926170002203,None,106.30926170002203,None,0.2,0.35,106.4925672999816,None,106.4925672999816,None,106.4925672999816,None,space,0.13367160002235323,106.4925672999816,None,106.64258039998822,None,,,akash,001,2020_Apr_18_2103,experiment,2020.1.3,59.98749862183085,
images/light_grey_box,images/light_grey_box,images/light_grey_box,images/light_grey_box,images/light_grey_box_with_target,images/light_grey_box,0,0.1,0.25,0,47,47,55,,,,,,,,,,,,,107.14260129991453,None,107.14260129991453,None,107.14260129991453,None,108.14278300001752,None,108.14278300001752,None,108.14278300001752,None,0.05,0.2,108.35939110000618,108.47607989993412,108.35939110000618,108.47607989993412,108.35939110000618,108.47607989993412,space,0.20045550004579127,108.35939110000618,None,108.57603489991743,None,,,akash,001,2020_Apr_18_2103,experiment,2020.1.3,59.98749862183085,
images/light_grey_box_with_cue,images/light_grey_box,images/light_grey_box,images/light_grey_box,images/light_grey_box_with_target,images/light_grey_box,0,0.2,0.35,0,48,48,60,,,,,,,,,,,,,109.07609490002505,None,109.07609490002505,None,109.07609490002505,None,110.09284109994769,None,110.09284109994769,None,110.09284109994769,None,0.05,0.2,110.25954030000139,110.39285529998597,110.25954030000139,110.39285529998597,110.25954030000139,110.39285529998597,space,0.16731119994074106,110.25954030000139,None,110.44286990002729,None,,,akash,001,2020_Apr_18_2103,experiment,2020.1.3,59.98749862183085,
images/light_grey_box,images/light_grey_box,images/light_grey_box_with_cue,images/light_grey_box,images/light_grey_box_with_target,images/light_grey_box,0,0.05,0.2,0,49,49,32,,,,,,,,,,,,,110.94288999994751,None,110.94288999994751,None,110.94288999994751,None,111.94296799995936,None,111.94296799995936,None,111.94296799995936,None,0.0,0.15,112.1430163999321,None,112.1430163999321,None,112.1430163999321,None,space,0.11695040005724877,112.1430163999321,None,112.27634769992437,None,,,akash,001,2020_Apr_18_2103,experiment,2020.1.3,59.98749862183085,
images/light_grey_box_with_cue,images/light_grey_box,images/light_grey_box,images/light_grey_box,images/light_grey_box_with_target,images/light_grey_box,0,0.3,0.45,0,50,50,82,,,,,,,,,,,,,112.77639269991778,None,112.77639269991778,None,112.77639269991778,None,113.77636369992979,None,113.77636369992979,None,113.77636369992979,None,0.0,0.15,113.99314209993463,114.1264511999907,113.99314209993463,114.1264511999907,113.99314209993463,114.1264511999907,space,12.467945599928498,113.99314209993463,None,126.47742399992421,None,,,akash,001,2020_Apr_18_2103,experiment,2020.1.3,59.98749862183085,
images/light_grey_box_with_cue,images/light_grey_box,images/light_grey_box,images/light_grey_box_with_target,images/light_grey_box,images/light_grey_box,0,0.2,0.35,0,51,51,66,,,,,,,,,,,,,126.97747299994808,None,126.97747299994808,None,126.97747299994808,None,127.97758619999513,None,127.97758619999513,None,127.97758619999513,None,0.1,0.25,128.19424659991637,None,128.19424659991637,None,128.19424659991637,None,space,0.08356059994548559,128.19424659991637,None,128.29422879999038,None,,,akash,001,2020_Apr_18_2103,experiment,2020.1.3,59.98749862183085,
images/light_grey_box_with_cue,images/light_grey_box,images/light_grey_box,images/light_grey_box,images/light_grey_box,images/light_grey_box_with_target,0,0.5,0.65,0,52,52,107,,,,,,,,,,,,,128.79426559992135,None,128.79426559992135,None,128.79426559992135,None,129.7943202999886,None,129.7943202999886,None,129.7943202999886,None,0.05,0.2,130.01102709991392,130.127707800013,130.01102709991392,130.127707800013,130.01102709991392,130.127707800013,space,0.11706840002443641,130.01102709991392,None,130.144444799982,None,,,akash,001,2020_Apr_18_2103,experiment,2020.1.3,59.98749862183085,
images/light_grey_box_with_cue,images/light_grey_box,images/light_grey_box,images/light_grey_box,images/light_grey_box_with_target,images/light_grey_box,0,0.1,0.25,0,53,53,42,,,,,,,,,,,,,130.6444077999331,None,130.6444077999331,None,130.6444077999331,None,131.64447189995553,None,131.64447189995553,None,131.64447189995553,None,0.1,0.25,131.89450840000063,None,131.89450840000063,None,131.89450840000063,None,space,0.050981400068849325,131.89450840000063,None,131.9611762999557,None,,,akash,001,2020_Apr_18_2103,experiment,2020.1.3,59.98749862183085,
images/light_grey_box,images/light_grey_box,images/light_grey_box,images/light_grey_box,images/light_grey_box_with_target,images/light_grey_box,0,0.3,0.45,0,54,54,96,,,,,,,,,,,,,132.46120929997414,None,132.46120929997414,None,132.46120929997414,None,133.461289400002,None,133.461289400002,None,133.461289400002,None,0.2,0.35,133.66133259993512,133.7946729999967,133.66133259993512,133.7946729999967,133.66133259993512,133.7946729999967,space,0.16695520002394915,133.66133259993512,None,133.84465099999215,None,,,akash,001,2020_Apr_18_2103,experiment,2020.1.3,59.98749862183085,
images/light_grey_box_with_cue,images/light_grey_box,images/light_grey_box,images/light_grey_box,images/light_grey_box_with_target,images/light_grey_box,0,0.05,0.2,0,55,55,24,,,,,,,,,,,,,134.34469970001373,None,134.34469970001373,None,134.34469970001373,None,135.344678799971,None,135.344678799971,None,135.344678799971,None,0.05,0.2,135.5614488000283,135.62812220002525,135.5614488000283,135.62812220002525,135.5614488000283,135.62812220002525,space,0.2503796999808401,135.5614488000283,None,135.82814370002598,None,,,akash,001,2020_Apr_18_2103,experiment,2020.1.3,59.98749862183085,
images/light_grey_box_with_cue,images/light_grey_box,images/light_grey_box,images/light_grey_box,images/light_grey_box,images/light_grey_box,0,0.3,0.45,0,56,56,89,,,,,,,,,,,,,136.3282652000198,None,136.3282652000198,None,136.3282652000198,None,137.32821770000737,None,137.32821770000737,None,137.32821770000737,None,0.05,0.2,137.5282637999626,None,137.5282637999626,None,137.5282637999626,None,space,0.03377050010021776,137.5282637999626,None,137.57831499993335,None,,,akash,001,2020_Apr_18_2103,experiment,2020.1.3,59.98749862183085,
images/light_grey_box,images/light_grey_box,images/light_grey_box_with_cue,images/light_grey_box,images/light_grey_box,images/light_grey_box,0,0.0,0.15,0,57,57,19,,,,,,,,,,,,,138.07829019997735,None,138.07829019997735,None,138.07829019997735,None,139.07838800002355,None,139.07838800002355,None,139.07838800002355,None,0.2,0.35,139.22839459998067,None,139.22839459998067,None,139.22839459998067,None,space,0.13373480003792793,139.22839459998067,None,139.37841250002384,None,,,akash,001,2020_Apr_18_2103,experiment,2020.1.3,59.98749862183085,
images/light_grey_box_with_cue,images/light_grey_box,images/light_grey_box,images/light_grey_box,images/light_grey_box_with_target,images/light_grey_box,0,0.5,0.65,0,58,58,101,,,,,,,,,,,,,139.87844459991902,None,139.87844459991902,None,139.87844459991902,None,140.87851549999323,None,140.87851549999323,None,140.87851549999323,None,0.05,0.2,141.0785368999932,141.16194369993173,141.0785368999932,141.16194369993173,141.0785368999932,141.16194369993173,space,0.1336774000665173,141.0785368999932,None,141.22852349991444,None,,,akash,001,2020_Apr_18_2103,experiment,2020.1.3,59.98749862183085,
images/light_grey_box_with_cue,images/light_grey_box,images/light_grey_box,images/light_grey_box,images/light_grey_box_with_target,images/light_grey_box,0,0.05,0.2,0,59,59,23,,,,,,,,,,,,,141.7285829000175,None,141.7285829000175,None,141.7285829000175,None,142.72869269992225,None,142.72869269992225,None,142.72869269992225,None,0.0,0.15,142.91199860000052,None,142.91199860000052,None,142.91199860000052,None,space,0.15051359997596592,142.91199860000052,None,143.07870499999262,None,,,akash,001,2020_Apr_18_2103,experiment,2020.1.3,59.98749862183085,
images/light_grey_box,images/light_grey_box,images/light_grey_box_with_cue,images/light_grey_box,images/light_grey_box_with_target,images/light_grey_box,0,0.0,0.15,0,60,60,13,,,,,,,,,,,,,143.57871959998738,None,143.57871959998738,None,143.57871959998738,None,144.57875579991378,None,144.57875579991378,None,144.57875579991378,None,0.2,0.35,144.795491799945,None,144.795491799945,None,144.795491799945,None,space,0.1506210999796167,144.795491799945,None,144.96217439998873,None,,,akash,001,2020_Apr_18_2103,experiment,2020.1.3,59.98749862183085,
images/light_grey_box,images/light_grey_box,images/light_grey_box,images/light_grey_box,images/light_grey_box_with_target,images/light_grey_box,0,0.3,0.45,0,61,61,95,,,,,,,,,,,,,145.4622059999965,None,145.4622059999965,None,145.4622059999965,None,146.46228229999542,None,146.46228229999542,None,146.46228229999542,None,0.5,0.65,146.6456217999803,None,146.6456217999803,None,146.6456217999803,None,space,0.15043839998543262,146.6456217999803,None,146.81230499991216,None,,,akash,001,2020_Apr_18_2103,experiment,2020.1.3,59.98749862183085,
images/light_grey_box,images/light_grey_box,images/light_grey_box_with_cue,images/light_grey_box,images/light_grey_box_with_target,images/light_grey_box,0,0.5,0.65,0,62,62,110,,,,,,,,,,,,,147.31237960001454,None,147.31237960001454,None,147.31237960001454,None,148.31242259999271,None,148.31242259999271,None,148.31242259999271,None,0.2,0.35,148.49577489995863,None,148.49577489995863,None,148.49577489995863,None,space,0.08361030009109527,148.49577489995863,None,148.59577539993916,None,,,akash,001,2020_Apr_18_2103,experiment,2020.1.3,59.98749862183085,
images/light_grey_box,images/light_grey_box,images/light_grey_box_with_cue,images/light_grey_box,images/light_grey_box,images/light_grey_box,0,0.2,0.35,0,63,63,78,,,,,,,,,,,,,149.09585169993807,None,149.09585169993807,None,149.09585169993807,None,150.09587580000516,None,150.09587580000516,None,150.09587580000516,None,0.2,0.35,150.2458947999403,150.41261200001463,150.2458947999403,150.41261200001463,150.2458947999403,150.41261200001463,space,0.7504438000032678,150.2458947999403,None,151.0126450000098,None,,,akash,001,2020_Apr_18_2103,experiment,2020.1.3,59.98749862183085,
images/light_grey_box_with_cue,images/light_grey_box,images/light_grey_box,images/light_grey_box,images/light_grey_box_with_target,images/light_grey_box,0,0.1,0.25,0,64,64,40,,,,,,,,,,,,,151.51267570001073,None,151.51267570001073,None,151.51267570001073,None,152.51263299991842,None,152.51263299991842,None,152.51263299991842,None,0.2,0.35,152.6961033999687,None,152.6961033999687,None,152.6961033999687,None,space,0.11698330007493496,152.6961033999687,None,152.82940719998442,None,,,akash,001,2020_Apr_18_2103,experiment,2020.1.3,59.98749862183085,
images/light_grey_box,images/light_grey_box,images/light_grey_box_with_cue,images/light_grey_box,images/light_grey_box_with_target,images/light_grey_box,0,0.5,0.65,0,65,65,112,,,,,,,,,,,,,153.32945620000828,None,153.32945620000828,None,153.32945620000828,None,154.32952239993028,None,154.32952239993028,None,154.32952239993028,None,0.05,0.2,154.51289919996634,None,154.51289919996634,None,154.51289919996634,None,space,0.1505034000147134,154.51289919996634,None,154.67956969991792,None,,,akash,001,2020_Apr_18_2103,experiment,2020.1.3,59.98749862183085,
images/light_grey_box_with_cue,images/light_grey_box,images/light_grey_box,images/light_grey_box,images/light_grey_box_with_target,images/light_grey_box,0,0.05,0.2,0,66,66,25,,,,,,,,,,,,,155.1796230999753,None,155.1796230999753,None,155.1796230999753,None,156.17965239996556,None,156.17965239996556,None,156.17965239996556,None,0.3,0.44999999999999996,156.329685100005,None,156.329685100005,None,156.329685100005,None,space,0.16696960001718253,156.329685100005,None,156.51306059991475,None,,,akash,001,2020_Apr_18_2103,experiment,2020.1.3,59.98749862183085,
images/light_grey_box_with_cue,images/light_grey_box,images/light_grey_box,images/light_grey_box,images/light_grey_box_with_target,images/light_grey_box,0,0.0,0.15,0,67,67,0,,,,,,,,,,,,,157.01308179995976,None,157.01308179995976,None,157.01308179995976,None,158.01315140002407,None,158.01315140002407,None,158.01315140002407,None,0.1,0.25,158.19652939995285,None,158.19652939995285,None,158.19652939995285,None,space,0.1504228999838233,158.19652939995285,None,158.36319029994775,None,,,akash,001,2020_Apr_18_2103,experiment,2020.1.3,59.98749862183085,
images/light_grey_box_with_cue,images/light_grey_box,images/light_grey_box,images/light_grey_box,images/light_grey_box,images/light_grey_box_with_target,0,0.0,0.15,0,68,68,7,,,,,,,,,,,,,158.8632175999228,None,158.8632175999228,None,158.8632175999228,None,159.86333840002771,None,159.86333840002771,None,159.86333840002771,None,0.0,0.15,160.11330899992026,160.1633716999786,160.11330899992026,160.1633716999786,160.11330899992026,160.1633716999786,space,1.0837357999989763,160.11330899992026,None,161.21340379992034,None,,,akash,001,2020_Apr_18_2103,experiment,2020.1.3,59.98749862183085,
images/light_grey_box_with_cue,images/light_grey_box,images/light_grey_box,images/light_grey_box,images/light_grey_box_with_target,images/light_grey_box,0,0.5,0.65,0,69,69,103,,,,,,,,,,,,,161.7134491999168,None,161.7134491999168,None,161.7134491999168,None,162.71350529999472,None,162.71350529999472,None,162.71350529999472,None,0.0,0.15,162.88022669998463,163.03020719997585,162.88022669998463,163.03020719997585,162.88022669998463,163.03020719997585,space,0.16689400002360344,162.88022669998463,None,163.0635480999481,None,,,akash,001,2020_Apr_18_2103,experiment,2020.1.3,59.98749862183085,
images/light_grey_box,images/light_grey_box,images/light_grey_box_with_cue,images/light_grey_box,images/light_grey_box,images/light_grey_box,0,0.5,0.65,0,70,70,119,,,,,,,,,,,,,163.56358620000537,None,163.56358620000537,None,163.56358620000537,None,164.56363529991359,None,164.56363529991359,None,164.56363529991359,None,0.2,0.35,164.71360000001732,None,164.71360000001732,None,164.71360000001732,None,space,0.08371789997909218,164.71360000001732,None,164.81368139991537,None,,,akash,001,2020_Apr_18_2103,experiment,2020.1.3,59.98749862183085,
images/light_grey_box_with_cue,images/light_grey_box,images/light_grey_box,images/light_grey_box,images/light_grey_box,images/light_grey_box_with_target,0,0.2,0.35,0,71,71,67,,,,,,,,,,,,,165.3137216999894,None,165.3137216999894,None,165.3137216999894,None,166.313701499952,None,166.313701499952,None,166.313701499952,None,0.3,0.44999999999999996,166.46380719996523,166.63048849999905,166.46380719996523,166.63048849999905,166.46380719996523,166.63048849999905,space,0.23364940006285906,166.46380719996523,None,166.71382629999425,None,,,akash,001,2020_Apr_18_2103,experiment,2020.1.3,59.98749862183085,
images/light_grey_box,images/light_grey_box,images/light_grey_box_with_cue,images/light_grey_box,images/light_grey_box_with_target,images/light_grey_box,0,0.0,0.15,0,72,72,14,,,,,,,,,,,,,167.21385629998986,None,167.21385629998986,None,167.21385629998986,None,168.21392839995679,None,168.21392839995679,None,168.21392839995679,None,0.2,0.35,168.4639659000095,None,168.4639659000095,None,168.4639659000095,None,space,0.050259800045751035,168.4639659000095,None,168.53062029997818,None,,,akash,001,2020_Apr_18_2103,experiment,2020.1.3,59.98749862183085,
images/light_grey_box_with_cue,images/light_grey_box,images/light_grey_box,images/light_grey_box,images/light_grey_box_with_target,images/light_grey_box,0,0.5,0.65,0,73,73,102,,,,,,,,,,,,,169.03066299995407,None,169.03066299995407,None,169.03066299995407,None,170.03079450002406,None,170.03079450002406,None,170.03079450002406,None,0.05,0.2,170.26409680000506,None,170.26409680000506,None,170.26409680000506,None,space,0.08386620006058365,170.26409680000506,None,170.36409669998102,None,,,akash,001,2020_Apr_18_2103,experiment,2020.1.3,59.98749862183085,
images/light_grey_box_with_cue,images/light_grey_box,images/light_grey_box,images/light_grey_box,images/light_grey_box_with_target,images/light_grey_box,0,0.0,0.15,0,74,74,3,,,,,,,,,,,,,170.86414269998204,None,170.86414269998204,None,170.86414269998204,None,171.86420650000218,None,171.86420650000218,None,171.86420650000218,None,0.2,0.35,172.09757049998734,None,172.09757049998734,None,172.09757049998734,None,space,0.03698820003774017,172.09757049998734,None,172.14754629996605,None,,,akash,001,2020_Apr_18_2103,experiment,2020.1.3,59.98749862183085,
images/light_grey_box,images/light_grey_box,images/light_grey_box,images/light_grey_box,images/light_grey_box_with_target,images/light_grey_box,0,0.1,0.25,0,75,75,53,,,,,,,,,,,,,172.6476056999527,None,172.6476056999527,None,172.6476056999527,None,173.64770069997758,None,173.64770069997758,None,173.64770069997758,None,0.2,0.35,173.81437099992763,None,173.81437099992763,None,173.81437099992763,None,space,0.017163299955427647,173.81437099992763,None,173.84769590001088,None,,,akash,001,2020_Apr_18_2103,experiment,2020.1.3,59.98749862183085,
images/light_grey_box_with_cue,images/light_grey_box,images/light_grey_box,images/light_grey_box,images/light_grey_box,images/light_grey_box,0,0.0,0.15,0,76,76,9,,,,,,,,,,,,,174.34773989999667,None,174.34773989999667,None,174.34773989999667,None,175.34780510002747,None,175.34780510002747,None,175.34780510002747,None,0.05,0.2,175.54783309996128,175.63116480002645,175.54783309996128,175.63116480002645,175.54783309996128,175.63116480002645,space,0.15029040002264082,175.54783309996128,None,175.71449669997673,None,,,akash,001,2020_Apr_18_2103,experiment,2020.1.3,59.98749862183085,
images/light_grey_box_with_cue,images/light_grey_box,images/light_grey_box,images/light_grey_box,images/light_grey_box_with_target,images/light_grey_box,0,0.05,0.2,0,77,77,20,,,,,,,,,,,,,176.21458749996964,None,176.21458749996964,None,176.21458749996964,None,177.21464959997684,None,177.21464959997684,None,177.21464959997684,None,0.3,0.44999999999999996,177.4313060999848,177.51466300000902,177.4313060999848,177.51466300000902,177.4313060999848,177.51466300000902,space,0.11709650000557303,177.4313060999848,None,177.56468119996134,None,,,akash,001,2020_Apr_18_2103,experiment,2020.1.3,59.98749862183085,
images/light_grey_box,images/light_grey_box,images/light_grey_box_with_cue,images/light_grey_box,images/light_grey_box_with_target,images/light_grey_box,0,0.0,0.15,0,78,78,15,,,,,,,,,,,,,178.06470139999874,None,178.06470139999874,None,178.06470139999874,None,179.0647252999479,None,179.0647252999479,None,179.0647252999479,None,0.5,0.65,179.2481086999178,None,179.2481086999178,None,179.2481086999178,None,space,0.13365390000399202,179.2481086999178,None,179.39811960002407,None,,,akash,001,2020_Apr_18_2103,experiment,2020.1.3,59.98749862183085,
images/light_grey_box_with_cue,images/light_grey_box,images/light_grey_box,images/light_grey_box_with_target,images/light_grey_box,images/light_grey_box,0,0.3,0.45,0,79,79,86,,,,,,,,,,,,,179.89816340000834,None,179.89816340000834,None,179.89816340000834,None,180.8982409000164,None,180.8982409000164,None,180.8982409000164,None,0.0,0.15,181.04824109992478,181.19825799996033,181.04824109992478,181.19825799996033,181.04824109992478,181.19825799996033,space,0.18385499995201826,181.04824109992478,None,181.24826869997196,None,,,akash,001,2020_Apr_18_2103,experiment,2020.1.3,59.98749862183085,
images/light_grey_box_with_cue,images/light_grey_box,images/light_grey_box,images/light_grey_box,images/light_grey_box,images/light_grey_box,0,0.1,0.25,0,80,80,49,,,,,,,,,,,,,181.74830400000792,None,181.74830400000792,None,181.74830400000792,None,182.7482915999135,None,182.7482915999135,None,182.7482915999135,None,0.0,0.15,182.9484470000025,None,182.9484470000025,None,182.9484470000025,None,space,0.13394059997517616,182.9484470000025,None,183.0983943999745,None,,,akash,001,2020_Apr_18_2103,experiment,2020.1.3,59.98749862183085,
images/light_grey_box_with_cue,images/light_grey_box,images/light_grey_box,images/light_grey_box,images/light_grey_box_with_target,images/light_grey_box,0,0.3,0.45,0,81,81,85,,,,,,,,,,,,,183.59845289995428,None,183.59845289995428,None,183.59845289995428,None,184.59844550001435,None,184.59844550001435,None,184.59844550001435,None,0.2,0.35,184.8651926999446,184.88187519996427,184.8651926999446,184.88187519996427,184.8651926999446,184.88187519996427,space,0.08361839991994202,184.8651926999446,None,184.96521739999298,None,,,akash,001,2020_Apr_18_2103,experiment,2020.1.3,59.98749862183085,
images/light_grey_box_with_cue,images/light_grey_box,images/light_grey_box,images/light_grey_box,images/light_grey_box_with_target,images/light_grey_box,0,0.5,0.65,0,82,82,105,,,,,,,,,,,,,185.46524769999087,None,185.46524769999087,None,185.46524769999087,None,186.4653642999474,None,186.4653642999474,None,186.4653642999474,None,0.05,0.2,186.6653473000042,186.76535599993076,186.6653473000042,186.76535599993076,186.6653473000042,186.76535599993076,space,0.15039460000116378,186.6653473000042,None,186.83203369996045,None,,,akash,001,2020_Apr_18_2103,experiment,2020.1.3,59.98749862183085,
images/light_grey_box_with_cue,images/light_grey_box,images/light_grey_box,images/light_grey_box,images/light_grey_box,images/light_grey_box,0,0.5,0.65,0,83,83,108,,,,,,,,,,,,,187.3321003000019,None,187.3321003000019,None,187.3321003000019,None,188.33212379994802,None,188.33212379994802,None,188.33212379994802,None,0.0,0.15,188.51545169996098,188.68214499996975,188.51545169996098,188.68214499996975,188.51545169996098,188.68214499996975,space,0.78369259997271,188.51545169996098,None,189.31558860000223,None,,,akash,001,2020_Apr_18_2103,experiment,2020.1.3,59.98749862183085,
images/light_grey_box_with_cue,images/light_grey_box,images/light_grey_box,images/light_grey_box,images/light_grey_box_with_target,images/light_grey_box,0,0.3,0.45,0,84,84,80,,,,,,,,,,,,,189.81556469993666,None,189.81556469993666,None,189.81556469993666,None,190.81565170001704,None,190.81565170001704,None,190.81565170001704,None,0.2,0.35,191.03234609996434,191.14892760000657,191.03234609996434,191.14892760000657,191.03234609996434,191.14892760000657,space,0.13359109999146312,191.03234609996434,None,191.1823585999664,None,,,akash,001,2020_Apr_18_2103,experiment,2020.1.3,59.98749862183085,
images/light_grey_box_with_cue,images/light_grey_box,images/light_grey_box,images/light_grey_box,images/light_grey_box_with_target,images/light_grey_box,0,0.1,0.25,0,85,85,43,,,,,,,,,,,,,191.68235979997553,None,191.68235979997553,None,191.68235979997553,None,192.68243429996073,None,192.68243429996073,None,192.68243429996073,None,0.0,0.15,192.8658129000105,192.9658181000268,192.8658129000105,192.9658181000268,192.8658129000105,192.9658181000268,space,0.13374019996263087,192.8658129000105,None,193.01582490000874,None,,,akash,001,2020_Apr_18_2103,experiment,2020.1.3,59.98749862183085,
images/light_grey_box_with_cue,images/light_grey_box,images/light_grey_box,images/light_grey_box,images/light_grey_box,images/light_grey_box,0,0.05,0.2,0,86,86,29,,,,,,,,,,,,,193.51588359999005,None,193.51588359999005,None,193.51588359999005,None,194.51598030002788,None,194.51598030002788,None,194.51598030002788,None,0.0,0.15,194.66595159994904,194.8492936999537,194.66595159994904,194.8492936999537,194.66595159994904,194.8492936999537,space,0.2169458999997005,194.66595159994904,None,194.8993099000072,None,,,akash,001,2020_Apr_18_2103,experiment,2020.1.3,59.98749862183085,
images/light_grey_box_with_cue,images/light_grey_box,images/light_grey_box,images/light_grey_box,images/light_grey_box,images/light_grey_box,0,0.5,0.65,0,87,87,109,,,,,,,,,,,,,195.39933909999672,None,195.39933909999672,None,195.39933909999672,None,196.39939959999174,None,196.39939959999174,None,196.39939959999174,None,0.3,0.44999999999999996,196.5660958000226,196.6994453999214,196.5660958000226,196.6994453999214,196.5660958000226,196.6994453999214,space,0.1337119999807328,196.5660958000226,None,196.71608929999638,None,,,akash,001,2020_Apr_18_2103,experiment,2020.1.3,59.98749862183085,
images/light_grey_box_with_cue,images/light_grey_box,images/light_grey_box,images/light_grey_box,images/light_grey_box,images/light_grey_box,0,0.05,0.2,0,88,88,28,,,,,,,,,,,,,197.21614959998988,None,197.21614959998988,None,197.21614959998988,None,198.21614029991906,None,198.21614029991906,None,198.21614029991906,None,0.0,0.15,198.39962729997933,None,198.39962729997933,None,198.39962729997933,None,space,0.16698149999137968,198.39962729997933,None,198.58289299998432,None,,,akash,001,2020_Apr_18_2103,experiment,2020.1.3,59.98749862183085,
images/light_grey_box,images/light_grey_box,images/light_grey_box,images/light_grey_box,images/light_grey_box_with_target,images/light_grey_box,0,0.5,0.65,0,89,89,116,,,,,,,,,,,,,199.0829491999466,None,199.0829491999466,None,199.0829491999466,None,200.083019600017,None,200.083019600017,None,200.083019600017,None,0.5,0.65,200.24970699998084,None,200.24970699998084,None,200.24970699998084,None,space,0.2000929000787437,200.24970699998084,None,200.4663964000065,None,,,akash,001,2020_Apr_18_2103,experiment,2020.1.3,59.98749862183085,
images/light_grey_box,images/light_grey_box,images/light_grey_box_with_cue,images/light_grey_box,images/light_grey_box,images/light_grey_box,0,0.05,0.2,0,90,90,38,,,,,,,,,,,,,200.96633470000234,None,200.96633470000234,None,200.96633470000234,None,201.96642650000285,None,201.96642650000285,None,201.96642650000285,None,0.5,0.65,202.1665542999981,None,202.1665542999981,None,202.1665542999981,None,space,0.13357009994797409,202.1665542999981,None,202.31653549999464,None,,,akash,001,2020_Apr_18_2103,experiment,2020.1.3,59.98749862183085,
images/light_grey_box,images/light_grey_box,images/light_grey_box,images/light_grey_box,images/light_grey_box_with_target,images/light_grey_box,0,0.3,0.45,0,91,91,94,,,,,,,,,,,,,202.81657579995226,None,202.81657579995226,None,202.81657579995226,None,203.81665169994812,None,203.81665169994812,None,203.81665169994812,None,0.3,0.44999999999999996,203.9833252999233,None,203.9833252999233,None,203.9833252999233,None,space,0.13343139993958175,203.9833252999233,None,204.13332609995268,None,,,akash,001,2020_Apr_18_2103,experiment,2020.1.3,59.98749862183085,
images/light_grey_box_with_cue,images/light_grey_box,images/light_grey_box,images/light_grey_box,images/light_grey_box,images/light_grey_box_with_target,0,0.1,0.25,0,92,92,47,,,,,,,,,,,,,204.63337639998645,None,204.63337639998645,None,204.63337639998645,None,205.633518800023,None,205.633518800023,None,205.633518800023,None,0.3,0.44999999999999996,205.9001476999838,None,205.9001476999838,None,205.9001476999838,None,space,0.06697360007092357,205.9001476999838,None,205.9834746000124,None,,,akash,001,2020_Apr_18_2103,experiment,2020.1.3,59.98749862183085,
images/light_grey_box_with_cue,images/light_grey_box,images/light_grey_box,images/light_grey_box,images/light_grey_box,images/light_grey_box,0,0.1,0.25,0,93,93,48,,,,,,,,,,,,,206.48351659998298,None,206.48351659998298,None,206.48351659998298,None,207.48356919991784,None,207.48356919991784,None,207.48356919991784,None,0.2,0.35,207.65027139999438,None,207.65027139999438,None,207.65027139999438,None,space,0.15028760000132024,207.65027139999438,None,207.81697809998877,None,,,akash,001,2020_Apr_18_2103,experiment,2020.1.3,59.98749862183085,
images/light_grey_box,images/light_grey_box,images/light_grey_box_with_cue,images/light_grey_box,images/light_grey_box_with_target,images/light_grey_box,0,0.0,0.15,0,94,94,12,,,,,,,,,,,,,208.31697659997735,None,208.31697659997735,None,208.31697659997735,None,209.3170845999848,None,209.3170845999848,None,209.3170845999848,None,0.3,0.44999999999999996,209.51708279992454,209.63376190001145,209.51708279992454,209.63376190001145,209.51708279992454,209.63376190001145,space,0.18362459994386882,209.51708279992454,None,209.7170720999129,None,,,akash,001,2020_Apr_18_2103,experiment,2020.1.3,59.98749862183085,
images/light_grey_box,images/light_grey_box,images/light_grey_box_with_cue,images/light_grey_box,images/light_grey_box_with_target,images/light_grey_box,0,0.0,0.15,0,95,95,11,,,,,,,,,,,,,210.2171336999163,None,210.2171336999163,None,210.2171336999163,None,211.21720610000193,None,211.21720610000193,None,211.21720610000193,None,0.1,0.25,211.4172238999745,None,211.4172238999745,None,211.4172238999745,None,space,0.15057830000296235,211.4172238999745,None,211.58387089997996,None,,,akash,001,2020_Apr_18_2103,experiment,2020.1.3,59.98749862183085,
images/light_grey_box,images/light_grey_box,images/light_grey_box,images/light_grey_box,images/light_grey_box_with_target,images/light_grey_box,0,0.2,0.35,0,96,96,73,,,,,,,,,,,,,212.0839571999386,None,212.0839571999386,None,212.0839571999386,None,213.08394389995374,None,213.08394389995374,None,213.08394389995374,None,0.0,0.15,213.30072419997305,213.38404639996588,213.30072419997305,213.38404639996588,213.30072419997305,213.38404639996588,space,0.15034060005564243,213.30072419997305,None,213.46738509996794,None,,,akash,001,2020_Apr_18_2103,experiment,2020.1.3,59.98749862183085,
images/light_grey_box,images/light_grey_box,images/light_grey_box_with_cue,images/light_grey_box,images/light_grey_box_with_target,images/light_grey_box,0,0.2,0.35,0,97,97,70,,,,,,,,,,,,,213.96741559996735,None,213.96741559996735,None,213.96741559996735,None,214.96750209992751,None,214.96750209992751,None,214.96750209992751,None,0.0,0.15,215.20085289992858,None,215.20085289992858,None,215.20085289992858,None,space,0.08446449995972216,215.20085289992858,None,215.30085499992128,None,,,akash,001,2020_Apr_18_2103,experiment,2020.1.3,59.98749862183085,
images/light_grey_box,images/light_grey_box,images/light_grey_box,images/light_grey_box,images/light_grey_box_with_target,images/light_grey_box,0,0.5,0.65,0,98,98,113,,,,,,,,,,,,,215.8008877999382,None,215.8008877999382,None,215.8008877999382,None,216.80096219992265,None,216.80096219992265,None,216.80096219992265,None,0.1,0.25,217.0343282999238,None,217.0343282999238,None,217.0343282999238,None,space,0.10028769995551556,217.0343282999238,None,217.1509940000251,None,,,akash,001,2020_Apr_18_2103,experiment,2020.1.3,59.98749862183085,
images/light_grey_box_with_cue,images/light_grey_box,images/light_grey_box,images/light_grey_box,images/light_grey_box_with_target,images/light_grey_box,0,0.0,0.15,0,99,99,1,,,,,,,,,,,,,217.65101789997425,None,217.65101789997425,None,217.65101789997425,None,218.65109870000742,None,218.65109870000742,None,218.65109870000742,None,0.2,0.35,218.8844368000282,218.98445190000348,218.8844368000282,218.98445190000348,218.8844368000282,218.98445190000348,space,0.10033669997937977,218.8844368000282,None,219.00113689992577,None,,,akash,001,2020_Apr_18_2103,experiment,2020.1.3,59.98749862183085,
images/light_grey_box,images/light_grey_box,images/light_grey_box_with_cue,images/light_grey_box,images/light_grey_box,images/light_grey_box_with_target,0,0.5,0.65,0,100,100,117,,,,,,,,,,,,,219.50120159995276,None,219.50120159995276,None,219.50120159995276,None,220.50117780000437,None,220.50117780000437,None,220.50117780000437,None,0.2,0.35,220.6845939999912,220.8012743999716,220.6845939999912,220.8012743999716,220.6845939999912,220.8012743999716,space,0.18362670007627457,220.6845939999912,None,220.88461770000868,None,,,akash,001,2020_Apr_18_2103,experiment,2020.1.3,59.98749862183085,
images/light_grey_box_with_cue,images/light_grey_box,images/light_grey_box,images/light_grey_box,images/light_grey_box_with_target,images/light_grey_box,0,0.3,0.45,0,101,101,81,,,,,,,,,,,,,221.3846760999877,None,221.3846760999877,None,221.3846760999877,None,222.38433539995458,None,222.38433539995458,None,222.38433539995458,None,0.3,0.44999999999999996,222.6180836999556,222.66809479997028,222.6180836999556,222.66809479997028,222.6180836999556,222.66809479997028,space,0.06694469996728003,222.6180836999556,None,222.70142890000716,None,,,akash,001,2020_Apr_18_2103,experiment,2020.1.3,59.98749862183085,
images/light_grey_box,images/light_grey_box,images/light_grey_box_with_cue,images/light_grey_box,images/light_grey_box,images/light_grey_box,0,0.2,0.35,0,102,102,79,,,,,,,,,,,,,223.20146519993432,None,223.20146519993432,None,223.20146519993432,None,224.20154189993627,None,224.20154189993627,None,224.20154189993627,None,0.5,0.65,224.43488179997075,224.5515559000196,224.43488179997075,224.5515559000196,224.43488179997075,224.5515559000196,space,0.1336591000435874,224.43488179997075,None,224.5848880999256,None,,,akash,001,2020_Apr_18_2103,experiment,2020.1.3,59.98749862183085,
images/light_grey_box_with_cue,images/light_grey_box,images/light_grey_box,images/light_grey_box,images/light_grey_box,images/light_grey_box,0,0.0,0.15,0,103,103,8,,,,,,,,,,,,,225.0849308000179,None,225.0849308000179,None,225.0849308000179,None,226.08503680001013,None,226.08503680001013,None,226.08503680001013,None,0.05,0.2,226.26834900001995,226.41838209994603,226.26834900001995,226.41838209994603,226.26834900001995,226.41838209994603,space,0.20030749996658415,226.26834900001995,None,226.48503470001742,None,,,akash,001,2020_Apr_18_2103,experiment,2020.1.3,59.98749862183085,
images/light_grey_box_with_cue,images/light_grey_box,images/light_grey_box,images/light_grey_box,images/light_grey_box,images/light_grey_box_with_target,0,0.3,0.45,0,104,104,87,,,,,,,,,,,,,226.98507319996133,None,226.98507319996133,None,226.98507319996133,None,227.98514180001803,None,227.98514180001803,None,227.98514180001803,None,0.0,0.15,228.20183829998132,228.31848469993565,228.20183829998132,228.31848469993565,228.20183829998132,228.31848469993565,space,0.13364820007700473,228.20183829998132,None,228.35187160002533,None,,,akash,001,2020_Apr_18_2103,experiment,2020.1.3,59.98749862183085,
images/light_grey_box,images/light_grey_box,images/light_grey_box,images/light_grey_box,images/light_grey_box_with_target,images/light_grey_box,0,0.05,0.2,0,105,105,35,,,,,,,,,,,,,228.85188909992576,None,228.85188909992576,None,228.85188909992576,None,229.85189539997373,None,229.85189539997373,None,229.85189539997373,None,0.0,0.15,230.0520202999469,230.15200180001557,230.0520202999469,230.15200180001557,230.0520202999469,230.15200180001557,space,0.15022519999183714,230.0520202999469,None,230.21866200002842,None,,,akash,001,2020_Apr_18_2103,experiment,2020.1.3,59.98749862183085,
images/light_grey_box_with_cue,images/light_grey_box,images/light_grey_box,images/light_grey_box_with_target,images/light_grey_box,images/light_grey_box,0,0.5,0.65,0,106,106,106,,,,,,,,,,,,,230.71871019992977,None,230.71871019992977,None,230.71871019992977,None,231.71877439995296,None,231.71877439995296,None,231.71877439995296,None,0.05,0.2,231.9687760999659,232.06877519993577,231.9687760999659,232.06877519993577,231.9687760999659,232.06877519993577,space,0.100274300086312,231.9687760999659,None,232.08546929992735,None,,,akash,001,2020_Apr_18_2103,experiment,2020.1.3,59.98749862183085,
images/light_grey_box,images/light_grey_box,images/light_grey_box,images/light_grey_box,images/light_grey_box_with_target,images/light_grey_box,0,0.3,0.45,0,107,107,93,,,,,,,,,,,,,232.58550769998692,None,232.58550769998692,None,232.58550769998692,None,233.58550819999073,None,233.58550819999073,None,233.58550819999073,None,0.05,0.2,233.80226409994066,233.91895780002233,233.80226409994066,233.91895780002233,233.80226409994066,233.91895780002233,space,0.15028229996096343,233.80226409994066,None,233.96897489996627,None,,,akash,001,2020_Apr_18_2103,experiment,2020.1.3,59.98749862183085,
images/light_grey_box,images/light_grey_box,images/light_grey_box,images/light_grey_box,images/light_grey_box_with_target,images/light_grey_box,0,0.5,0.65,0,108,108,114,,,,,,,,,,,,,234.46898509992752,None,234.46898509992752,None,234.46898509992752,None,235.46908930002246,None,235.46908930002246,None,235.46908930002246,None,0.1,0.25,235.735745199956,235.76907669997308,235.735745199956,235.76907669997308,235.735745199956,235.76907669997308,space,0.2169924998888746,235.735745199956,None,235.96909619995859,None,,,akash,001,2020_Apr_18_2103,experiment,2020.1.3,59.98749862183085,
images/light_grey_box_with_cue,images/light_grey_box,images/light_grey_box,images/light_grey_box,images/light_grey_box_with_target,images/light_grey_box,0,0.3,0.45,0,109,109,83,,,,,,,,,,,,,236.4691219999222,None,236.4691219999222,None,236.4691219999222,None,237.4691971000284,None,237.4691971000284,None,237.4691971000284,None,0.05,0.2,237.61926449998282,237.76921389997005,237.61926449998282,237.76921389997005,237.61926449998282,237.76921389997005,space,0.20024879998527467,237.61926449998282,None,237.8359133999329,None,,,akash,001,2020_Apr_18_2103,experiment,2020.1.3,59.98749862183085,
images/light_grey_box,images/light_grey_box,images/light_grey_box_with_cue,images/light_grey_box,images/light_grey_box_with_target,images/light_grey_box,0,0.1,0.25,0,110,110,52,,,,,,,,,,,,,238.33594669995364,None,238.33594669995364,None,238.33594669995364,None,239.33601650001947,None,239.33601650001947,None,239.33601650001947,None,0.0,0.15,239.63604130002204,239.63604130002204,239.63604130002204,239.63604130002204,239.63604130002204,239.63604130002204,space,2.067164700012654,239.63604130002204,None,241.7195509999292,None,,,akash,001,2020_Apr_18_2103,experiment,2020.1.3,59.98749862183085,
images/light_grey_box,images/light_grey_box,images/light_grey_box,images/light_grey_box,images/light_grey_box_with_target,images/light_grey_box,0,0.2,0.35,0,111,111,75,,,,,,,,,,,,,242.21957369998563,None,242.21957369998563,None,242.21957369998563,None,243.219691199949,None,243.219691199949,None,243.219691199949,None,0.2,0.35,243.40299710002728,243.5364381999243,243.40299710002728,243.5364381999243,243.40299710002728,243.5364381999243,space,0.18366900004912168,243.40299710002728,None,243.60304969991557,None,,,akash,001,2020_Apr_18_2103,experiment,2020.1.3,59.98749862183085,
images/light_grey_box,images/light_grey_box,images/light_grey_box_with_cue,images/light_grey_box,images/light_grey_box_with_target,images/light_grey_box,0,0.3,0.45,0,112,112,92,,,,,,,,,,,,,244.10305259993766,None,244.10305259993766,None,244.10305259993766,None,245.10312280000653,None,245.10312280000653,None,245.10312280000653,None,0.5,0.65,245.28647739998996,None,245.28647739998996,None,245.28647739998996,None,space,0.06778889999259263,245.28647739998996,None,245.36981449997984,None,,,akash,001,2020_Apr_18_2103,experiment,2020.1.3,59.98749862183085,
images/light_grey_box_with_cue,images/light_grey_box,images/light_grey_box,images/light_grey_box,images/light_grey_box_with_target,images/light_grey_box,0,0.1,0.25,0,113,113,44,,,,,,,,,,,,,245.86986420000903,None,245.86986420000903,None,245.86986420000903,None,246.86994170001708,None,246.86994170001708,None,246.86994170001708,None,0.1,0.25,247.06995039992034,247.18660949997138,247.06995039992034,247.18660949997138,247.06995039992034,247.18660949997138,space,0.9503649999387562,247.06995039992034,None,248.03668359993026,None,,,akash,001,2020_Apr_18_2103,experiment,2020.1.3,59.98749862183085,
images/light_grey_box,images/light_grey_box,images/light_grey_box_with_cue,images/light_grey_box_with_target,images/light_grey_box,images/light_grey_box,0,0.0,0.15,0,114,114,16,,,,,,,,,,,,,248.53672739991453,None,248.53672739991453,None,248.53672739991453,None,249.53679599997122,None,249.53679599997122,None,249.53679599997122,None,0.3,0.44999999999999996,249.75347509991843,249.886817599996,249.75347509991843,249.886817599996,249.75347509991843,249.886817599996,space,0.16701370000373572,249.75347509991843,None,249.93683339993004,None,,,akash,001,2020_Apr_18_2103,experiment,2020.1.3,59.98749862183085,
images/light_grey_box,images/light_grey_box,images/light_grey_box_with_cue,images/light_grey_box,images/light_grey_box,images/light_grey_box,0,0.05,0.2,0,115,115,39,,,,,,,,,,,,,250.43686769995838,None,250.43686769995838,None,250.43686769995838,None,251.4369589999551,None,251.4369589999551,None,251.4369589999551,None,0.05,0.2,251.62027339998167,None,251.62027339998167,None,251.62027339998167,None,space,0.10030300007201731,251.62027339998167,None,251.7369821999455,None,,,akash,001,2020_Apr_18_2103,experiment,2020.1.3,59.98749862183085,
images/light_grey_box_with_cue,images/light_grey_box,images/light_grey_box,images/light_grey_box,images/light_grey_box,images/light_grey_box,0,0.2,0.35,0,116,116,69,,,,,,,,,,,,,252.23700139997527,None,252.23700139997527,None,252.23700139997527,None,253.2370700999163,None,253.2370700999163,None,253.2370700999163,None,0.5,0.65,253.4037571999943,None,253.4037571999943,None,253.4037571999943,None,space,0.11767740000505,253.4037571999943,None,253.5371241000248,None,,,akash,001,2020_Apr_18_2103,experiment,2020.1.3,59.98749862183085,
images/light_grey_box,images/light_grey_box,images/light_grey_box,images/light_grey_box,images/light_grey_box_with_target,images/light_grey_box,0,0.1,0.25,0,117,117,56,,,,,,,,,,,,,254.03713920002338,None,254.03713920002338,None,254.03713920002338,None,255.03721560002305,None,255.03721560002305,None,255.03721560002305,None,0.0,0.15,255.2205551000079,None,255.2205551000079,None,255.2205551000079,None,space,0.0669875000603497,255.2205551000079,None,255.30390109994914,None,,,akash,001,2020_Apr_18_2103,experiment,2020.1.3,59.98749862183085,
images/light_grey_box,images/light_grey_box,images/light_grey_box_with_cue,images/light_grey_box,images/light_grey_box,images/light_grey_box,0,0.3,0.45,0,118,118,98,,,,,,,,,,,,,255.80396869999822,None,255.80396869999822,None,255.80396869999822,None,256.8040113999741,None,256.8040113999741,None,256.8040113999741,None,0.3,0.44999999999999996,257.0040313999634,None,257.0040313999634,None,257.0040313999634,None,space,0.11705750005785376,257.0040313999634,None,257.13737010001205,None,,,akash,001,2020_Apr_18_2103,experiment,2020.1.3,59.98749862183085,
images/light_grey_box_with_cue,images/light_grey_box,images/light_grey_box,images/light_grey_box,images/light_grey_box,images/light_grey_box,0,0.3,0.45,0,119,119,88,,,,,,,,,,,,,257.63742599997204,None,257.63742599997204,None,257.63742599997204,None,258.6374801999191,None,258.6374801999191,None,258.6374801999191,None,0.0,0.15,258.8041427999269,None,258.8041427999269,None,258.8041427999269,None,space,0.1337109999731183,258.8041427999269,None,258.95418180001434,None,,,akash,001,2020_Apr_18_2103,experiment,2020.1.3,59.98749862183085,
,,,,,,,,,,,,,,,,,,,,,,,,,,,,,,,,,,,,,,,,,,,,,,,,,,,259.4542403999949,None,,,,,,,
